ustime gx gy gz ax ay az
2314922586 45 -65 -44 -16531 -126 1133
2314929552 47 -82 -48 -16737 -179 1295
2314936217 49 -80 -49 -16253 -147 1199
2314942871 42 -69 -47 -16609 -153 1175
2314949514 48 -78 -46 -16378 -146 1189
2314956158 46 -74 -43 -16504 -172 1179
2314962801 45 -69 -38 -16505 -140 1154
2314969440 47 -77 -44 -16379 -168 1177
2314976117 45 -72 -36 -16564 -119 1156
2314982767 46 -79 -42 -16603 -150 1217
2314989421 44 -75 -54 -16322 -164 1141
2314996058 47 -76 -48 -16576 -139 1215
2315002695 48 -74 -44 -16452 -124 1155
2315009326 45 -76 -41 -16509 -141 1206
2315015764 49 -72 -44 -16433 -181 1164
2315022200 46 -74 -39 -16387 -156 1175
2315028634 48 -74 -43 -16526 -170 1210
2315035076 47 -77 -49 -16439 -141 1191
2315041507 45 -74 -48 -16454 -170 1206
2315047944 47 -76 -40 -16477 -165 1203
2315054377 48 -70 -45 -16485 -163 1205
2315060816 47 -77 -45 -16445 -149 1180
2315067249 48 -71 -44 -16451 -166 1174
2315073695 45 -75 -43 -16472 -158 1171
2315080130 46 -74 -40 -16492 -150 1203
2315086566 47 -79 -42 -16477 -151 1185
2315093018 46 -79 -45 -16477 -125 1241
2315099489 44 -73 -43 -16463 -155 1152
2315105978 46 -74 -45 -16495 -139 1205
2315112445 46 -82 -49 -16450 -150 1221
2315118921 46 -79 -43 -16498 -128 1203
2315125394 44 -78 -41 -16470 -195 1190
2315131869 44 -76 -44 -16474 -166 1165
2315138343 47 -71 -46 -16452 -146 1187
2315144827 47 -78 -41 -16439 -162 1220
2315151305 44 -79 -46 -16477 -141 1240
2315157777 45 -77 -43 -16431 -148 1172
2315164251 46 -73 -41 -16435 -141 1205
2315170725 48 -80 -50 -16488 -112 1245
2315177182 42 -79 -37 -16439 -164 1169
2315183646 48 -75 -50 -16461 -106 1226
2315190109 51 -75 -44 -16478 -182 1158
2315196577 45 -76 -46 -16509 -183 1209
2315203037 46 -76 -44 -16478 -136 1167
2315209524 48 -79 -47 -16483 -128 1206
2315215998 42 -75 -47 -16473 -116 1163
2315222480 45 -75 -46 -16467 -136 1177
2315228959 46 -77 -42 -16460 -151 1198
2315235422 47 -78 -44 -16470 -154 1179
2315241895 45 -73 -43 -16467 -178 1190
2315248389 46 -78 -50 -16474 -169 1181
2315254866 46 -77 -43 -16445 -129 1204
2315261456 42 -75 -43 -16498 -149 1173
2315267927 49 -77 -44 -16456 -166 1242
2315274396 48 -72 -39 -16437 -173 1214
2315280830 48 -75 -39 -16411 -170 1189
2315287303 50 -82 -39 -16470 -160 1223
2315293746 48 -79 -43 -16435 -137 1203
2315300208 50 -77 -43 -16398 -170 1218
2315306679 45 -79 -44 -16546 -158 1192
2315313156 49 -79 -43 -16456 -158 1171
2315319632 43 -80 -46 -16505 -146 1186
2315326105 47 -78 -44 -16456 -151 1222
2315332589 55 -77 -46 -16488 -148 1211
2315339065 50 -81 -44 -16468 -171 1219
2315345542 46 -81 -48 -16471 -118 1189
2315351970 47 -82 -43 -16481 -146 1175
2315358445 54 -73 -46 -16452 -162 1188
2315364913 47 -77 -51 -16486 -145 1200
2315371392 51 -77 -44 -16498 -143 1181
2315377819 49 -70 -45 -16469 -155 1246
2315384300 48 -73 -40 -16434 -178 1208
2315390774 47 -72 -46 -16428 -144 1189
2315397247 44 -74 -46 -16488 -182 1176
2315403724 43 -76 -49 -16518 -141 1193
2315410194 48 -75 -47 -16458 -169 1218
2315416681 47 -74 -44 -16443 -168 1236
2315423157 51 -77 -46 -16547 -187 1253
2315429628 46 -76 -54 -16459 -162 1178
2315436106 47 -72 -44 -16440 -164 1197
2315442579 49 -69 -41 -16462 -136 1203
2315449050 50 -81 -45 -16440 -166 1182
2315455524 46 -78 -45 -16481 -194 1181
2315461996 50 -78 -41 -16449 -145 1201
2315468479 46 -78 -42 -16446 -120 1216
2315474961 45 -70 -41 -16473 -132 1180
2315481433 44 -67 -38 -16495 -176 1151
2315487907 47 -79 -43 -16475 -135 1205
2315494389 49 -82 -45 -16495 -153 1187
2315500866 46 -74 -41 -16441 -149 1136
2315507339 45 -72 -47 -16494 -154 1181
2315513827 47 -74 -42 -16468 -184 1190
2315520305 44 -81 -40 -16429 -132 1178
2315526776 46 -82 -46 -16457 -148 1197
2315533248 45 -76 -49 -16465 -185 1191
2315539724 46 -69 -50 -16527 -166 1188
2315546207 47 -74 -42 -16488 -156 1201
2315552683 46 -77 -46 -16501 -150 1215
2315559154 45 -76 -47 -16500 -146 1213
2315565632 48 -70 -50 -16451 -150 1223
2315572062 49 -80 -49 -16486 -182 1164
2315578521 49 -78 -41 -16483 -114 1174
2315584998 49 -81 -43 -16487 -175 1212
2315591471 48 -74 -51 -16445 -166 1185
2315597915 49 -76 -46 -16449 -176 1189
2315604432 49 -73 -44 -16481 -124 1172
2315610870 48 -77 -51 -16447 -154 1189
2315617303 46 -76 -49 -16460 -151 1176
2315623754 46 -71 -46 -16458 -161 1197
2315630190 48 -83 -48 -16474 -164 1221
2315636624 45 -72 -40 -16452 -168 1200
2315643049 44 -75 -40 -16442 -139 1208
2315649477 45 -80 -48 -16518 -178 1193
2315655916 47 -79 -46 -16483 -164 1171
2315662350 45 -75 -42 -16487 -129 1190
2315668784 44 -76 -45 -16506 -142 1152
2315675215 46 -72 -41 -16461 -124 1194
2315681647 47 -72 -47 -16492 -152 1149
2315688075 46 -83 -47 -16484 -152 1152
2315694501 45 -72 -46 -16438 -129 1220
2315700929 48 -74 -37 -16435 -170 1251
2315707354 49 -73 -50 -16469 -142 1177
2315713802 45 -78 -41 -16452 -129 1154
2315720237 45 -73 -42 -16496 -132 1165
2315726669 46 -75 -46 -16493 -118 1225
2315733101 51 -81 -51 -16442 -146 1177
2315739524 42 -74 -41 -16517 -182 1213
2315745966 51 -78 -47 -16476 -157 1181
2315752406 47 -74 -43 -16440 -145 1218
2315758838 46 -74 -43 -16474 -174 1200
2315765277 48 -76 -43 -16461 -137 1188
2315771714 47 -78 -37 -16476 -149 1222
2315778150 49 -76 -43 -16466 -133 1203
2315784558 43 -76 -45 -16524 -164 1190
2315790956 44 -79 -49 -16464 -167 1197
2315797380 49 -72 -42 -16449 -186 1192
2315803813 38 -77 -49 -16477 -169 1242
2315810248 47 -77 -41 -16483 -175 1207
2315816687 46 -68 -49 -16458 -161 1165
2315823124 46 -72 -40 -16471 -165 1187
2315829558 51 -72 -47 -16513 -122 1220
2315835992 46 -76 -45 -16488 -182 1186
2315842427 44 -76 -41 -16486 -193 1205
2315848866 48 -77 -51 -16481 -161 1187
2315855271 47 -79 -52 -16478 -179 1184
2315861675 49 -80 -39 -16479 -158 1219
2315868103 46 -79 -48 -16504 -155 1175
2315874505 49 -68 -49 -16452 -152 1160
2315880937 46 -71 -43 -16512 -154 1166
2315887374 44 -77 -41 -16483 -162 1207
2315893809 52 -74 -39 -16452 -121 1214
2315900211 48 -74 -46 -16462 -187 1185
2315906638 46 -75 -42 -16454 -161 1160
2315913071 48 -72 -52 -16456 -168 1210
2315919506 49 -76 -43 -16434 -126 1216
2315925943 46 -74 -47 -16493 -144 1233
2315932375 44 -77 -50 -16475 -162 1181
2315938814 41 -75 -46 -16456 -145 1218
2315945261 47 -76 -48 -16557 -163 1216
2315951795 48 -81 -49 -16469 -158 1209
2315958235 45 -72 -44 -16473 -124 1175
2315964673 45 -80 -46 -16470 -149 1223
2315971112 48 -83 -48 -16501 -155 1177
2315977539 46 -80 -36 -16477 -102 1208
2315983984 43 -72 -40 -16481 -165 1200
2315990415 46 -80 -46 -16485 -158 1191
2315996851 48 -75 -48 -16481 -166 1173
2316003288 46 -77 -45 -16516 -149 1192
2316009690 53 -69 -45 -16463 -173 1207
2316016123 47 -75 -42 -16454 -163 1179
2316022552 46 -76 -38 -16467 -145 1132
2316028980 50 -81 -42 -16465 -156 1168
2316035387 48 -76 -42 -16455 -149 1231
2316041822 49 -70 -49 -16493 -152 1222
2316048248 47 -78 -46 -16441 -150 1169
2316054682 51 -72 -43 -16489 -144 1174
2316061111 45 -77 -43 -16469 -117 1202
2316067540 45 -73 -46 -16463 -162 1197
2316073975 46 -71 -45 -16422 -170 1150
2316080411 45 -75 -42 -16480 -151 1220
2316086846 51 -80 -47 -16491 -177 1225
2316093281 46 -70 -47 -16481 -164 1218
2316099715 49 -73 -43 -16454 -138 1188
2316106150 45 -73 -45 -16472 -182 1167
2316112586 46 -80 -47 -16474 -128 1209
2316119020 45 -72 -50 -16442 -128 1174
2316125426 48 -79 -48 -16472 -151 1238
2316131822 51 -82 -43 -16421 -167 1165
2316138247 46 -75 -39 -16494 -165 1166
2316144678 47 -81 -43 -16467 -151 1248
2316151115 50 -82 -43 -16484 -114 1192
2316157522 43 -72 -46 -16477 -160 1165
2316163961 47 -76 -46 -16451 -188 1162
2316170394 47 -85 -47 -16518 -155 1239
2316176846 49 -73 -52 -16479 -168 1153
2316183281 47 -68 -40 -16391 -178 1157
2316189713 44 -73 -45 -16516 -160 1222
2316196143 49 -71 -49 -16480 -161 1176
2316202576 45 -80 -47 -16481 -164 1199
2316209013 39 -75 -41 -16485 -159 1181
2316215443 49 -74 -40 -16531 -189 1194
2316221878 44 -73 -46 -16515 -153 1076
2316228321 45 -76 -51 -16493 -160 1152
2316234762 47 -74 -38 -16452 -105 1194
2316241194 45 -69 -46 -16524 -185 1236
2316247626 50 -77 -42 -16421 -168 1180
2316254032 48 -77 -46 -16440 -146 1234
2316260462 46 -78 -38 -16528 -194 1192
2316266900 48 -72 -42 -16475 -177 1211
2316273334 47 -77 -45 -16511 -155 1157
2316279768 51 -76 -38 -16510 -177 1210
2316286220 44 -84 -49 -16433 -99 1206
2316292745 48 -79 -50 -16423 -139 1210
2316299186 50 -71 -36 -16463 -163 1205
2316305620 49 -79 -42 -16498 -152 1200
2316312056 49 -78 -35 -16449 -124 1144
2316318500 49 -74 -39 -16499 -154 1231
2316324937 51 -73 -49 -16480 -190 1176
2316331371 51 -72 -52 -16465 -169 1172
2316337800 48 -75 -44 -16507 -110 1222
2316344230 45 -74 -41 -16477 -155 1187
2316350656 46 -82 -46 -16484 -169 1186
2316357089 47 -75 -43 -16504 -161 1152
2316363527 48 -71 -47 -16482 -138 1188
2316369982 52 -80 -47 -16487 -148 1209
2316376415 40 -74 -36 -16462 -144 1200
2316382851 44 -71 -48 -16471 -189 1148
2316389255 50 -79 -43 -16451 -155 1227
2316395703 47 -75 -42 -16433 -150 1159
2316402137 43 -75 -45 -16463 -144 1229
2316408574 44 -78 -45 -16482 -154 1192
2316415003 43 -72 -43 -16467 -186 1203
2316421437 46 -73 -43 -16477 -114 1174
2316427872 44 -79 -44 -16456 -130 1202
2316434306 49 -74 -43 -16466 -152 1206
2316440735 50 -63 -47 -16459 -125 1147
2316447165 44 -81 -44 -16489 -156 1190
2316453618 47 -74 -40 -16494 -136 1180
2316460056 46 -74 -41 -16477 -138 1248
2316466506 46 -76 -43 -16479 -165 1209
2316472945 47 -75 -48 -16507 -156 1154
2316479378 43 -76 -44 -16486 -142 1163
2316485812 47 -77 -45 -16503 -163 1185
2316492252 46 -78 -45 -16474 -139 1138
2316498685 46 -73 -51 -16495 -186 1142
2316505115 45 -72 -49 -16499 -145 1248
2316511546 44 -77 -54 -16469 -140 1191
2316517981 47 -77 -47 -16474 -150 1185
2316524419 44 -71 -46 -16472 -181 1213
2316530852 47 -74 -49 -16489 -153 1146
2316537284 45 -78 -42 -16493 -127 1198
2316543711 46 -77 -48 -16420 -155 1195
2316550137 50 -76 -52 -16460 -164 1218
2316556568 47 -74 -52 -16489 -163 1201
2316563002 49 -77 -48 -16524 -157 1208
2316569433 49 -81 -47 -16473 -124 1162
2316575865 45 -68 -43 -16458 -191 1209
2316582299 48 -72 -42 -16463 -160 1151
2316588732 47 -78 -50 -16474 -147 1167
2316595159 46 -82 -42 -16441 -121 1218
2316601590 42 -70 -42 -16389 -150 1249
2316608018 50 -76 -52 -16476 -159 1202
2316614418 47 -80 -42 -16496 -161 1193
2316620846 47 -75 -40 -16445 -165 1169
2316627277 48 -82 -42 -16515 -154 1196
2316633803 43 -75 -41 -16473 -146 1175
2316640247 47 -66 -43 -16471 -168 1214
2316646676 47 -74 -46 -16521 -160 1201
2316653108 47 -83 -39 -16479 -165 1204
2316659536 48 -80 -45 -16461 -114 1182
2316665947 48 -74 -45 -16481 -152 1160
2316672377 45 -79 -41 -16486 -213 1164
2316678812 46 -108 -33 -16474 -149 1142
2316685213 48 -100 -35 -16486 -113 1225
2316691637 44 -76 -43 -16463 -147 1162
2316698069 47 -63 -52 -16460 -213 1101
2316704503 47 -85 -44 -16473 -131 1154
2316710938 45 -98 -41 -16479 -183 1212
2316717366 45 -66 -40 -16454 -221 1126
2316723769 49 -98 -34 -16490 -107 1288
2316730199 43 -92 -45 -16487 -203 1168
2316736632 46 -99 -33 -16483 -124 1219
2316743068 42 -91 -40 -16474 -119 1227
2316749501 45 -66 -52 -16461 -201 1154
2316755929 43 -63 -48 -16488 -177 1132
2316762329 47 -90 -41 -16464 -119 1274
2316768763 48 -59 -58 -16222 -75 1205
2316775204 43 232 -157 -16818 -659 121
2316781631 46 -76 -41 -16417 -210 1492
2316788064 46 -88 -43 -16574 -214 1110
2316794492 47 -104 -28 -16404 -158 1134
2316800924 49 -143 -23 -16480 -225 888
2316807358 47 -238 12 -16509 -278 1085
2316813803 46 -327 45 -16413 -211 1072
2316820237 16 -525 107 -16982 535 4105
2316826670 -2143 -2179 700 -7749 -1656 6420
2316833101 -3855 14 94 -19544 -155 1776
2316839530 -4601 -861 251 -18373 -486 1796
2316845969 -4588 -1776 181 -18310 -399 884
2316852406 -3856 -2253 198 -15820 326 594
2316858838 -3073 -2121 215 -15606 -251 -289
2316865272 -2433 -2000 182 -14546 -929 349
2316871701 -2431 -1796 146 -17849 -1090 616
2316878130 -2700 -1823 238 -16823 -866 -75
2316884565 -2998 -1498 203 -17333 -525 -436
2316891000 -3150 -1064 229 -16444 -574 -832
2316897434 -2936 -626 163 -17745 -1094 -881
2316903866 -2276 -725 -187 -19106 -1252 330
2316910294 -2121 -470 -1190 -20442 -1147 2414
2316916715 -2262 833 -1539 -21362 -474 2754
2316923144 -2592 2228 -1609 -22186 -16 2922
2316929582 -2828 2845 -1928 -22044 -334 3059
2316936022 -3055 2830 -2291 -21594 -430 3262
2316942451 -3380 2881 -2600 -20946 -420 2944
2316948890 -3730 2961 -2925 -19809 -774 1594
2316955327 -3938 2890 -3169 -18703 -1170 121
2316961763 -4008 2848 -3241 -17850 -1989 -1150
2316968281 -3920 3093 -3392 -17482 -2342 -2197
2316974719 -3545 3555 -3645 -17586 -2529 -3170
2316981156 -3311 4301 -4015 -17167 -2751 -3330
2316987591 -3283 5398 -4412 -16768 -2838 -3726
2316994024 -3194 6304 -4570 -16456 -3088 -4121
2317000460 -2940 7064 -4602 -16337 -3333 -4104
2317006923 -2485 7586 -4578 -16289 -3354 -3805
2317013381 -2157 7708 -4467 -16384 -3399 -3630
2317019819 -1972 7713 -4289 -16654 -3658 -3433
2317026253 -1988 7455 -4273 -17775 -3745 -3358
2317032684 -2062 7412 -4485 -19911 -4351 -2527
2317039089 -2185 8199 -5286 -21022 -4917 -2704
2317045522 -2066 9279 -6628 -20430 -5456 -5045
2317051959 -1606 10405 -8191 -17161 -5865 -6359
2317058395 -396 11600 -9288 -11969 -6534 -11335
2317064825 1329 12299 -9319 -10634 -4028 -8001
2317071268 1845 12124 -8464 -10126 -2540 -4371
2317077706 673 11523 -7248 -10356 -2404 -3046
2317084118 -822 10762 -5815 -12787 -2095 -1493
2317090514 -2461 10117 -5008 -13691 -2871 -2712
2317096951 -3747 10058 -4985 -15502 -3471 -2420
2317103388 -4251 10516 -5090 -12581 -5817 -5549
2317109831 -3827 10291 -4518 -15565 -3991 -5777
2317116268 -3645 10088 -4488 -14294 -5276 -5791
2317122706 -3514 9583 -4232 -14043 -5899 -5928
2317129155 -3351 8686 -4066 -13654 -6050 -8047
2317135574 -2854 7662 -4295 -12614 -6248 -9517
2317142011 -2356 6939 -4358 -11677 -6488 -9572
2317148450 -2098 7207 -4522 -11517 -6230 -8792
2317154883 -2211 8089 -4756 -11486 -5650 -8941
2317161323 -2352 9489 -5085 -11294 -5808 -8729
2317167852 -2496 10552 -5270 -11270 -5615 -9410
2317174325 -2532 11077 -5479 -10815 -5434 -9375
2317180763 -2472 11190 -5150 -11024 -6289 -10322
2317187218 -1703 11175 -5062 -9934 -8683 -14835
2317193661 379 11070 -4755 -8742 -11491 -18285
2317200163 3714 11187 -3694 -13531 -8305 -15974
2317206698 5798 10627 -3108 -18100 -4578 -3920
2317213218 3812 10027 -3715 -18382 -3363 206
2317219748 315 9473 -5029 -15869 -5309 -29
2317226221 -2577 8620 -6708 -18097 -3476 -1392
2317232657 -4423 7225 -9796 -13014 -6386 -6445
2317239095 -4977 6677 -12335 -13010 -7290 -8918
2317245533 -5133 6596 -13842 -11979 -6916 -8879
2317251965 -5022 6578 -14854 -9977 -6769 -10963
2317258405 -4566 6785 -15834 -7032 -6307 -10655
2317264843 -4277 6968 -15628 -5911 -5931 -12843
2317271283 -3641 6444 -14720 -4874 -5099 -12888
2317277818 -2853 5797 -12498 -5660 -4345 -10513
2317284261 -3265 5427 -10310 -5737 -5410 -9861
2317290694 -3362 5490 -7897 -5906 -6227 -10219
2317297132 -3496 6028 -6274 -8328 -5726 -10044
2317303572 -3672 6521 -5499 -5270 -13323 -18809
2317310000 -2346 7798 -5073 -8647 -9585 -15984
2317316454 -2095 8577 -5503 -8198 -8276 -11822
2317322889 -3123 8946 -5970 -10529 -3769 -5979
2317329324 -5514 7771 -7636 -6638 -4307 -5418
2317335759 -6715 6519 -8746 -7550 -4323 -8358
2317342198 -6920 4968 -9044 -4786 -5365 -11199
2317348707 -6242 3727 -7669 -8082 -6399 -12308
2317355242 -5847 2856 -6906 -7438 -9087 -11030
2317361794 -5936 3121 -5809 -6987 -10644 -12846
2317368328 -5727 3861 -5453 -7118 -10933 -15534
2317374800 -5361 5673 -5529 -6299 -10109 -16415
2317381242 -4795 6876 -5618 -5464 -9321 -16184
2317387763 -4172 7675 -5543 -5291 -8198 -14773
2317394240 -2809 7654 -5116 -4936 -8179 -12811
2317400679 -1794 6959 -5035 -5498 -7964 -11513
2317407120 -1010 6204 -5040 -6021 -7507 -10336
2317413556 -793 5490 -5453 -5915 -8018 -10276
2317420012 -783 4666 -6353 -4181 -8015 -11925
2317426423 -636 4256 -7863 -3672 -7442 -12959
2317432850 -97 4174 -9275 -4063 -5640 -13864
2317439282 32 3902 -10139 -2433 -3453 -12738
2317445713 -693 3088 -9824 -880 -2513 -11765
2317452140 -1365 1956 -8637 1134 -2829 -10925
2317458574 -2073 818 -6424 1648 -2998 -10636
2317465012 -2860 -205 -4886 2137 -3310 -10656
2317471445 -3523 -1063 -3199 2307 -3548 -11815
2317477877 -3793 -2303 -542 2248 -4240 -12253
2317484310 -4015 -2716 1608 2024 -4979 -11956
2317490744 -4896 -608 2486 476 -5800 -13615
2317497182 -5584 3678 1157 -982 -6518 -16148
2317503623 -4448 5054 -9 -29530 -12090 -7519
2317510063 -4749 5778 -6396 -8146 -13430 -13300
2317516511 -3902 5756 -10120 -9816 -8464 -12597
2317522948 -3376 3547 -14039 -10553 -6738 -12663
2317529387 -2971 3022 -17259 -6382 -6759 -15560
2317535830 -964 3243 -18636 -5197 -7933 -16779
2317542260 20 3317 -20405 -1514 -6351 -15229
2317548691 687 4106 -20560 2963 -2160 -16078
2317555129 2132 4795 -18725 5951 520 -15688
2317561560 3484 4301 -15870 8015 460 -14336
2317567994 4075 2767 -11398 7799 -628 -13166
2317574424 3250 2440 -8315 7132 -1292 -14246
2317580862 2614 2375 -5788 5547 -1812 -15728
2317587406 2506 2858 -3406 5407 -3380 -17792
2317593881 2585 2421 -1838 3717 -5039 -17332
2317600315 2077 2436 -1039 1341 -6776 -16551
2317606836 1607 2614 -1500 -236 -11326 -12880
2317613355 127 3472 -2899 -3297 -13788 -9390
2317619861 -2764 5023 -5824 -5178 -12618 -8658
2317626394 -5245 6258 -9045 -6942 -12789 -8338
2317632898 -7630 6210 -12421 -1509 -7495 -14611
2317639377 -7052 5686 -14762 -2895 -5229 -16265
2317645827 -6324 4360 -17100 2878 -4007 -12898
2317652260 -7799 3197 -17127 6769 -5387 -20017
2317658716 -5859 -920 -14284 7453 -3274 -23635
2317665156 -3122 -4406 -11268 8474 -4668 -18250
2317671589 -2537 -5484 -9179 5418 -4841 -19043
2317678021 -1883 -6048 -8089 11526 -1952 -18198
2317684447 -2704 -4585 -5031 5369 -4736 -16370
2317690880 -2282 -4037 -4417 5157 -6248 -17017
2317697316 -937 -3706 -1068 6443 -8324 -14687
2317703723 208 -6058 2831 3316 -589 -11240
2317710165 -910 -7585 3681 2736 -3901 -14007
2317716613 -1319 -8059 3784 2813 -2009 -13024
2317723051 -278 -6354 2268 4971 -5784 -11169
2317729494 656 -2179 -2284 4003 -7927 -9966
2317735941 -977 -889 -3125 3508 -7311 -12207
2317742372 -725 -545 -4231 3739 -5368 -14408
2317748810 -464 -315 -6424 3475 -4003 -15965
2317755212 -508 -486 -8130 1718 -2874 -16881
2317761641 -597 -1043 -8796 -661 -2912 -17726
2317768080 -212 -1366 -10109 -1670 -1621 -18360
2317774509 890 -1005 -11170 -2560 897 -18127
2317780958 1604 -1106 -11539 -256 -3094 -16298
2317787401 1807 -1198 -10707 5355 -5963 -14794
2317793852 1069 -549 -7896 9620 -7467 -12141
2317800288 -792 -356 -4865 4516 -3104 -15348
2317806723 -2001 320 -3529 1392 -1223 -15267
2317813158 -2455 1755 -3530 1284 -1580 -14588
2317819584 -2882 2798 -3763 1745 -2405 -11391
2317826022 -4410 4045 -4567 -109 -3539 -18137
2317832459 -2662 2782 -4914 1111 -4805 -19649
2317838893 -589 454 -3735 1100 -4163 -16658
2317845324 -5 -1727 -2957 416 -2608 -14826
2317851756 106 -3052 -2655 16 -1837 -14310
2317858198 97 -3771 -2584 556 -1762 -13574
2317864630 -521 -3616 -2583 967 -2285 -13387
2317871068 -1279 -3672 -2432 1453 -2980 -13744
2317877504 -1631 -4289 -2226 1702 -3647 -13977
2317883909 -1632 -4857 -2150 1628 -3773 -14136
2317890346 -1494 -5434 -2163 1221 -3949 -15036
2317896796 -1007 -6560 -2016 1480 -4771 -15925
2317903317 -646 -7920 -1545 3227 -4958 -16608
2317909756 -229 -8795 -1053 4894 -3903 -16370
2317916193 241 -7855 -1316 5817 -2487 -15348
2317922595 197 -5767 -1921 4799 -1396 -14693
2317929034 -499 -2459 -2633 3689 -1315 -14992
2317935469 -1181 -127 -2811 2401 -2504 -16898
2317941904 -1654 1554 -3255 434 -3858 -18257
2317948334 -1725 2970 -3712 -318 -4065 -18041
2317954778 -1529 3531 -4286 -701 -3730 -17637
2317961214 -1259 3353 -4473 -703 -3204 -17958
2317967640 -773 2340 -4583 1928 -4839 -18064
2317974082 777 690 -4538 -710 -3356 -18532
2317980519 1201 43 -4530 2439 -2381 -16258
2317986956 156 56 -3338 3410 -1907 -17310
2317993386 157 -635 -2589 4763 -1687 -18014
2317999815 390 -1538 -2024 4721 -1975 -18167
2318006220 454 -1941 -1586 3381 -2149 -18121
2318012650 388 -2196 -1267 2105 -3036 -17876
2318019087 -34 -2898 24 15 -3483 -16751
2318025523 -227 -3624 184 -1140 -4427 -15732
2318031959 -152 -3660 171 -170 -3765 -14691
2318038402 -413 -3136 -82 -709 -3791 -14718
2318044852 -312 -2223 -1012 -308 -3539 -15846
2318051285 -191 -457 -2541 2323 -2683 -16983
2318057725 -144 544 -2946 4131 -2661 -18489
2318064231 114 757 -2631 5064 -2721 -18847
2318070756 422 379 -1953 4771 -2397 -18032
2318077281 549 3 -1508 3614 -1946 -16572
2318083811 568 -302 -1258 2409 -2312 -15380
2318090344 547 -426 -1071 1211 -2542 -14756
2318096900 605 -585 -1063 166 -2690 -13789
2318103433 591 -582 -1155 -511 -2790 -12967
2318109932 518 -586 -1267 -351 -2599 -12366
2318116371 224 -794 -1192 233 -2394 -11914
2318122809 -104 -1257 -964 980 -2064 -11796
2318129248 -309 -2102 -503 1367 -2276 -12804
2318135705 -212 -2538 167 613 -2652 -14269
2318142140 -468 -3030 581 1821 -3165 -14115
2318148577 -387 -3373 1178 5019 1588 -11449
2318155014 -853 -3436 1930 2072 -2912 -18116
2318161445 -345 -3109 1249 881 -4201 -17892
2318167881 -690 -1829 189 -217 -4357 -21268
2318174316 34 -950 -459 326 -3768 -20004
2318180750 81 -198 -992 1688 -2740 -19696
2318187177 614 -187 -289 272 -3491 -20442
2318193580 592 -237 -683 1258 -4105 -18883
2318200028 310 112 -688 679 -3326 -19135
2318206459 480 222 -782 709 -2872 -17999
2318212890 607 325 -789 617 -3123 -16845
2318219328 575 278 -499 776 -3025 -15699
2318225904 419 52 -108 730 -3041 -15627
2318232382 457 -341 117 520 -2619 -13761
2318238854 -165 -414 90 657 -2226 -13159
2318245329 -345 -410 163 611 -2636 -14656
2318251814 -174 -549 205 481 -1993 -13328
2318258273 -319 -607 89 869 -1438 -14036
2318264758 -408 -610 -81 1296 -2416 -13629
2318271237 -509 -370 87 -135 -2031 -15306
2318277709 -370 -367 -63 -566 -2752 -14859
2318284170 -511 -132 -347 1589 -2853 -16843
2318290651 -40 -511 -322 648 -2578 -15728
2318297140 80 -27 -795 259 -2227 -15863
2318303619 326 358 -1011 1330 -2086 -17231
2318310092 839 377 -974 783 -2472 -16565
2318316577 655 667 -1170 391 -2644 -15533
2318323054 29 793 -1152 940 -2241 -16464
2318329526 116 506 -1009 748 -2063 -17458
2318335999 1101 160 -1307 259 -2174 -17658
2318342432 1669 -17 -1831 773 -1631 -14870
2318348909 325 415 -1605 759 -2136 -15202
2318355382 -595 668 -1013 193 -2823 -18116
2318361854 -130 449 -918 415 -2143 -16711
2318368333 -272 389 -674 355 -2348 -16722
2318374802 -299 269 -508 1330 -2437 -16865
2318381293 -271 18 -148 1322 -2393 -16556
2318387762 -196 -243 -26 1675 -2023 -16013
2318394236 -158 11 -150 1408 -1631 -15479
2318400710 -60 311 -330 1753 -1431 -15576
2318407195 -13 240 -332 1510 -1527 -15691
2318413671 144 11 -338 1302 -1054 -15775
2318420143 412 -7 -315 1300 -1299 -15185
2318426616 343 34 -492 738 -1438 -15554
2318433095 451 330 -671 575 -1378 -15128
2318439561 50 303 -650 589 -2265 -16911
2318446038 563 28 -396 885 -2336 -17652
2318452519 1066 89 -427 1516 -2324 -14843
2318459001 -19 -265 -231 1254 -2736 -17010
2318465473 243 -361 -227 1244 -2410 -18384
2318471929 1475 -249 -269 567 -1936 -15947
2318478419 627 155 -785 674 -2126 -12511
2318484908 -594 114 -434 35 -3463 -16511
2318491380 60 135 -396 1055 -2524 -15861
2318497856 382 66 -319 495 -2762 -15430
2318504339 439 235 -497 494 -2124 -15598
2318510812 1385 345 -616 668 -2310 -15903
2318517275 2034 128 -669 341 -2923 -14956
2318523717 1975 -152 -372 1858 -1051 -4728
2318530154 -2393 -2038 811 1889 -2461 -20299
2318536592 -1408 -2073 817 1794 -2024 -18210
2318543024 -1128 -1048 324 1295 -2809 -17294
2318549459 -805 -680 29 539 -2443 -16876
2318555984 -658 -651 -30 805 -2322 -15789
2318562419 -683 -726 -52 988 -2541 -16235
2318568856 -594 -955 -48 1087 -1917 -15595
2318575287 -510 -1333 98 389 -2236 -15348
2318581735 -599 -1465 131 1116 -1904 -16213
2318588162 -603 -1386 80 703 -1898 -16009
2318594599 -699 -1176 78 687 -2095 -15492
2318601032 -841 -1118 140 308 -2227 -15706
2318607461 -972 -1029 111 65 -1658 -15806
2318613906 -1063 -1055 149 84 -1740 -17185
2318620341 -791 -1292 241 769 -1199 -14897
2318626793 -970 -1389 272 715 -1530 -15932
2318633222 -935 -1616 373 263 -2152 -16800
2318639657 -758 -1685 316 -74 -1823 -14434
2318646089 -1114 -1319 252 137 -1725 -16315
2318652526 -1082 -1080 202 139 -2272 -16155
2318658952 -1051 -929 31 -249 -1723 -17007
2318665386 -932 -535 -66 5 -1769 -16431
2318671819 -876 -763 -108 480 -2033 -15610
2318678255 -1091 -915 -116 -152 -1149 -15331
2318684695 -1391 -1043 -77 348 -1380 -15309
2318691117 -1638 -813 -31 -84 -1423 -16157
2318697549 -1761 -826 -43 341 -1238 -15596
2318703981 -1901 -1098 -42 412 -2008 -15865
2318710420 -1898 -975 -28 -681 -639 -16887
2318716847 -1732 -199 -200 104 -1363 -16938
2318723282 -1461 -207 -125 -189 -2182 -16256
2318729710 -1285 -140 -154 240 -1551 -16635
2318736148 -1212 -109 -167 205 -1212 -17309
2318742579 -990 -144 -157 -817 -362 -15938
2318749016 -980 -89 -162 -129 -1119 -15792
2318755446 -1022 -96 -90 87 -696 -16361
2318761883 -913 -118 -60 109 -446 -16013
2318768319 -987 -212 -74 -30 -522 -15901
2318774755 -1080 -172 -111 150 -1420 -15849
2318781190 -1499 -220 241 -108 -67 -18035
2318787616 -1045 -96 -58 -135 314 -17114
2318794064 -818 -95 -304 101 -1108 -16454
2318800498 -828 63 -250 59 -307 -16604
2318806955 -724 -58 -291 -6 -768 -16405
2318813387 -678 -109 -303 -163 -816 -16389
2318819822 -604 -71 -502 702 -1876 -17726
2318826258 -488 -98 -190 -145 -598 -16580
2318832697 -391 -103 -136 -170 -644 -15950
2318839129 -403 -61 -168 447 -1103 -16895
2318845576 -426 -85 -137 -247 -1052 -16218
2318852007 -475 -100 -118 -109 -417 -15836
2318858451 -547 -78 -103 -209 -1152 -16001
2318864887 -495 -128 -79 -128 -806 -16347
2318871316 -476 -100 -88 -218 -1001 -16458
2318877755 -487 48 -100 92 -1373 -16882
2318884278 -360 -71 -48 -84 -911 -16065
2318890719 -348 -73 -46 -36 -457 -16035
2318897165 -396 -52 -48 -141 -416 -16041
2318903620 -418 -67 -33 -113 -193 -15916
2318910024 -417 -68 -47 -170 -624 -16328
2318916456 -349 -42 -43 -170 -794 -16348
2318922878 -318 -17 -31 -95 -355 -16171
2318929318 -294 -29 -29 -122 -703 -16368
2318935757 -202 -10 -22 8 -795 -16382
2318942195 -148 -1 -27 -52 -433 -16306
2318948632 -107 -34 -29 -69 -453 -16158
2318955076 -122 0 -1 -50 -556 -16219
2318961506 -117 -51 22 -82 -582 -16085
2318967939 -113 -71 15 -75 -518 -16152
2318974371 -109 -79 23 -92 -465 -16160
2318980808 -113 -110 7 -250 -377 -16111
2318987240 -91 -87 -6 -65 -538 -16112
2318993669 -97 -89 -13 -121 -539 -16072
2319000099 -94 -81 -5 -21 -550 -16205
2319006505 -77 -96 -20 -54 -515 -16163
2319012938 -73 -97 -31 -101 -431 -16060
2319019371 -99 -103 -23 -48 -464 -16111
2319025812 -111 -103 -42 -114 -566 -16147
2319032250 -104 -89 -50 -128 -507 -16235
2319038689 -92 -68 -47 -170 -594 -16211
2319045130 -64 -77 -55 -90 -542 -16131
2319051537 -49 -76 -52 -64 -496 -16235
2319057982 -35 -69 -45 -152 -441 -16216
2319064458 -25 -75 -50 -124 -431 -16245
2319070931 -6 -75 -62 -58 -430 -16168
2319077364 -9 -62 -48 -62 -484 -16079
2319083855 -6 -67 -55 -93 -450 -16145
2319090320 7 -67 -56 -85 -441 -16134
2319096801 1 -67 -51 -68 -468 -16145
2319103276 -2 -60 -58 -133 -420 -16088
2319109725 -41 -45 -68 -107 -1075 -16306
2319116160 -18 -42 -61 -102 -514 -16184
2319122594 -11 -51 -56 -93 -486 -16106
2319129032 -12 -56 -56 -84 -252 -16054
2319135471 -25 -54 -40 -68 -499 -16213
2319141906 -12 -59 -37 -113 -441 -16153
2319148331 -15 -56 -35 -51 -362 -16128
2319154762 -33 -67 -27 -2 -271 -16066
2319161207 -48 -73 -7 -43 -504 -16226
2319167648 -28 -83 -29 -61 -472 -16214
2319174085 -8 -82 -28 -22 -438 -16163
2319180515 -9 -83 -29 -37 -460 -16174
2319186956 -2 -95 -39 -71 -473 -16137
2319193402 4 -85 -33 -104 -476 -16192
2319199833 12 -79 -34 -50 -496 -16101
2319206268 21 -76 -45 -16 -465 -16101
2319212699 14 -76 -46 -92 -407 -16146
2319219123 10 -64 -39 -132 -384 -16110
2319225669 -3 -73 -58 -85 -80 -15861
2319232110 -25 -72 -57 -125 -264 -16164
2319238552 -5 -59 -46 -102 -404 -16171
2319245004 20 -61 -54 -90 -406 -16139
2319251438 22 -69 -61 -80 -406 -16171
2319257841 27 -72 -47 -24 -420 -16174
2319264275 28 -79 -47 -156 -408 -16077
2319270709 28 -89 -58 -78 -373 -16147
2319277166 29 -83 -45 -62 -112 -16038
2319283618 -31 -88 -20 -84 -682 -16218
2319290053 16 -95 -39 -119 -397 -16142
2319296505 20 -84 -39 -146 -383 -16195
2319302942 18 -79 -39 -86 -429 -16141
2319309380 24 -82 -51 -127 -453 -16135
2319315813 26 -67 -47 -68 -422 -16172
2319322247 20 -63 -47 -48 -382 -16137
2319328682 24 -61 -62 -119 -415 -16188
2319335113 19 -56 -52 -79 -453 -15876
2319341542 17 -54 -48 -57 -429 -16187
2319347972 26 -65 -54 -20 -431 -16170
2319354406 28 -69 -45 -63 -414 -16176
2319360843 34 -69 -45 -57 -383 -16149
2319367247 38 -82 -50 -77 -414 -16167
2319373673 37 -76 -48 -70 -429 -16129
2319380106 31 -66 -34 -61 -424 -16176
2319386563 43 -82 -43 -125 -380 -16118
2319392999 38 -75 -43 -96 -407 -16109
2319399438 36 -64 -38 -111 -415 -16099
2319405878 42 -76 -52 -53 -304 -16106
2319412313 -45 -70 -33 -124 -632 -16433
2319418715 5 -75 -27 -119 -437 -16177
2319425152 16 -87 -44 -95 -413 -16183
2319431587 31 -89 -40 -85 -404 -16118
2319438021 28 -67 -41 -80 -356 -16084
2319444451 34 -71 -52 -93 -380 -16138
2319450886 29 -71 -60 -43 -414 -16083
2319457321 34 -60 -46 -91 -428 -16110
2319463723 38 -59 -51 -115 -406 -16107
2319470149 39 -67 -62 -51 -411 -16141
2319476577 37 -61 -60 -46 -412 -16148
2319482977 34 -66 -49 -59 -399 -16166
2319489405 31 -84 -55 -43 -394 -16149
2319495836 27 -75 -44 -90 -350 -16144
2319502273 26 -61 -51 -66 -397 -16108
2319508713 27 -71 -57 -14 -411 -16172
2319515151 30 -61 -45 -54 -379 -16151
2319521557 32 -63 -46 -111 -370 -16161
2319527988 40 -65 -62 -95 -391 -16188
2319534393 37 -68 -48 -49 -391 -16155
2319540821 33 -58 -42 -74 -413 -16144
2319547250 39 -75 -44 -55 -383 -16194
2319553694 37 -72 -44 -62 -355 -16145
2319560129 33 -66 -35 -120 -389 -16122
2319566563 38 -81 -44 -41 -375 -16138
2319573082 35 -73 -43 -63 -371 -16144
2319579520 36 -62 -30 -85 -336 -16108
2319585975 10 -75 -12 -153 -900 -16285
2319592426 21 -68 -39 -118 -413 -16143
2319598905 32 -58 -39 -97 -411 -16148
2319605364 32 -57 -55 -54 -382 -16111
2319611770 36 -59 -55 -81 -357 -16112
2319618204 28 -56 -47 -52 -339 -16098
2319624649 18 -67 -41 -58 -397 -16182
2319631089 35 -82 -53 -76 -375 -16151
2319637522 32 -79 -45 -37 -355 -16184
2319643957 38 -84 -50 -52 -379 -16128
2319650358 44 -91 -49 -63 -391 -16135
2319656792 37 -85 -38 -79 -385 -16111
2319663221 40 -86 -46 -109 -362 -16138
2319669655 44 -85 -62 -111 -390 -16175
2319676082 36 -70 -47 -62 -393 -16093
2319682511 38 -66 -47 -102 -348 -16139
2319688945 37 -65 -50 -73 -358 -16140
2319695372 39 -56 -46 -111 -373 -16168
2319701772 43 -51 -52 -54 -375 -16160
2319708199 46 -59 -59 -65 -387 -16143
2319714627 46 -56 -53 -68 -389 -16115
2319721066 42 -54 -40 -91 -372 -16191
2319727501 41 -65 -52 -74 -357 -16131
2319733958 43 -67 -41 -69 -400 -16128
2319740397 35 -70 -35 -19 -402 -16125
2319746846 41 -80 -50 -74 -360 -16153
2319753281 40 -80 -42 -93 -388 -16151
2319759715 34 -73 -35 -72 -359 -16160
2319766147 43 -81 -44 -111 -370 -16150
2319772580 45 -78 -43 -107 -385 -16152
2319779013 43 -68 -41 -113 -375 -16143
2319785416 51 -85 -47 -95 -386 -16120
2319791811 46 -82 -47 -69 -386 -16178
2319798238 40 -80 -41 -74 -383 -16141
2319804666 44 -77 -47 -58 -352 -16155
2319811065 5 -89 -7 -173 -831 -15998
2319817488 20 -85 -22 -48 -424 -16195
2319823903 36 -71 -49 -29 -401 -16158
2319830337 39 -75 -60 -85 -366 -16155
2319836765 40 -73 -48 -87 -381 -16146
2319843165 43 -75 -54 -53 -419 -16115
2319849596 44 -81 -60 -44 -357 -16172
2319856021 39 -73 -43 -58 -361 -16174
2319862451 39 -73 -46 -45 -367 -16151
2319868885 38 -79 -46 -67 -395 -16151
2319875289 38 -78 -40 -67 -373 -16114
2319881684 43 -60 -41 -81 -369 -16109
2319888112 44 -70 -51 -93 -374 -16121
2319894550 44 -63 -46 -46 -341 -16089
2319900951 42 -57 -45 -41 -357 -16108
2319907380 39 -71 -51 -50 -424 -16125
2319913812 41 -72 -47 -59 -376 -16138
2319920340 41 -68 -37 -98 -347 -16350
2319926797 49 -83 -47 -48 -368 -16120
2319933234 42 -83 -46 -50 -391 -16118
2319939671 37 -80 -35 -75 -365 -16204
2319946106 42 -86 -48 -63 -363 -16120
2319952540 43 -72 -48 -88 -320 -16123
2319958977 31 -58 -38 -60 -363 -16208
2319965417 42 -66 -49 -78 -368 -16165
2319971852 47 -64 -53 -104 -325 -16175
2319978290 42 -60 -45 -71 -360 -16170
2319984728 41 -72 -50 -118 -391 -16152
2319991165 45 -91 -46 -48 -363 -16171
2319997593 45 -79 -43 -87 -356 -16147
2320004030 46 -94 -51 -77 -382 -16126
2320010466 50 -97 -50 -50 -368 -16121
2320016900 44 -85 -39 -30 -393 -16050
2320023336 43 -89 -41 -99 -360 -16130
2320029766 48 -93 -53 -76 -312 -16122
2320036197 45 -73 -39 -116 -357 -16113
2320042631 40 -73 -49 -30 -377 -16118
2320049075 49 -72 -55 -97 -354 -16168
2320055521 45 -63 -42 -80 -345 -16189
2320061957 43 -63 -46 -65 -348 -16178
2320068398 45 -71 -59 -34 -424 -16139
2320074837 44 -72 -41 -64 -383 -16135
2320081270 40 -62 -42 -47 -352 -16120
2320087703 44 -85 -49 -77 -364 -16160
2320094114 45 -81 -42 -77 -394 -16124
2320100538 37 -68 -42 -67 -396 -16166
2320106973 47 -77 -48 -77 -377 -16176
2320113400 43 -80 -46 -89 -357 -16114
2320119805 45 -76 -35 -63 -340 -16161
2320126222 42 -84 -49 -92 -403 -16176
2320132652 47 -86 -43 -86 -349 -16173
2320139081 43 -76 -30 -57 -353 -16134
2320145521 47 -79 -46 -97 -349 -16126
2320151953 48 -78 -46 -99 -381 -16111
2320158400 44 -64 -30 -55 -399 -16125
2320164838 42 -76 -41 -44 -409 -16182
2320171270 46 -82 -44 -77 -377 -16151
2320177704 41 -70 -38 -105 -394 -16104
2320184142 48 -75 -47 -64 -371 -16137
2320190592 50 -83 -56 -66 -390 -16185
2320197029 45 -77 -45 -60 -386 -16136
2320203468 38 -78 -49 -51 -402 -16146
2320209923 47 -80 -60 -123 -383 -16143
2320216328 48 -69 -45 -64 -344 -16138
2320222770 48 -71 -50 -131 -418 -16133
2320229211 53 -82 -47 -73 -357 -16144
2320235651 50 -78 -46 -49 -349 -16167
2320242092 48 -75 -48 -48 -366 -16098
2320248530 50 -81 -53 -45 -347 -16132
2320254936 40 -76 -46 -81 -387 -16110
2320261366 40 -71 -41 -78 -369 -16139
2320267940 48 -74 -51 -49 -376 -16146
2320274403 42 -70 -39 -67 -316 -16118
2320280865 41 -64 -40 -95 -346 -16187
2320287311 46 -73 -50 -53 -363 -16159
2320293753 43 -71 -45 -98 -375 -16063
2320300186 38 -60 -42 -76 -347 -16087
2320306626 44 -78 -52 -85 -383 -16124
2320313066 44 -81 -43 -87 -395 -16151
2320319505 40 -74 -39 -54 -306 -16122
2320325944 46 -78 -44 -81 -391 -16129
2320332387 43 -82 -41 -5 -374 -16114
2320338829 40 -69 -37 -60 -368 -16116
2320345270 43 -81 -46 -48 -365 -16198
2320351713 52 -79 -36 -65 -363 -16121
2320358150 46 -68 -34 -39 -351 -16140
2320364557 47 -79 -44 -32 -325 -16177
2320370985 49 -86 -51 -83 -349 -16128
2320377416 50 -69 -37 -45 -380 -16137
2320383861 45 -71 -55 -66 -378 -16155
2320390297 48 -82 -48 -55 -337 -16092
2320396735 46 -75 -47 -93 -354 -16150
2320403143 43 -67 -41 -64 -364 -16141
2320409576 46 -82 -55 -98 -354 -16161
2320416020 45 -70 -48 -74 -389 -16146
2320422461 47 -65 -52 -81 -337 -16151
2320428898 52 -72 -60 -64 -342 -16134
2320435310 46 -59 -48 -76 -374 -16098
2320441746 48 -63 -46 -43 -382 -16154
2320448178 52 -72 -50 -93 -318 -16126
2320454616 49 -62 -45 -103 -370 -16127
2320461050 49 -66 -40 -51 -348 -16124
2320467486 50 -79 -48 -43 -400 -16163
2320473927 48 -80 -48 -54 -373 -16150
2320480365 43 -73 -39 -44 -352 -16180
2320486798 45 -82 -40 -68 -358 -16181
2320493232 46 -79 -40 -89 -348 -16133
2320499636 38 -82 -26 -85 -385 -16132
2320506074 50 -80 -47 -73 -343 -16195
2320512511 47 -80 -43 -101 -346 -16106
2320518949 48 -66 -39 -117 -366 -16129
2320525383 49 -69 -49 -48 -412 -16103
2320531825 46 -65 -47 -90 -321 -16131
2320538264 44 -62 -39 -128 -322 -16165
2320544703 50 -67 -48 -98 -359 -16156
2320551143 51 -72 -54 -56 -416 -16143
2320557585 47 -65 -47 -39 -334 -16120
2320564024 52 -74 -59 -26 -372 -16128
2320570461 47 -90 -52 -7 -376 -16134
2320576898 54 -81 -49 -68 -359 -16065
2320583331 49 -87 -49 -44 -358 -16195
2320589771 57 -102 -47 -102 -326 -16122
2320596222 56 -96 -42 -114 -381 -16176
2320602663 54 -91 -43 -82 -335 -16128
2320609103 60 -85 -56 -65 -357 -16158
2320615654 55 -88 -39 -111 -368 -16118
2320622095 57 -81 -41 -80 -379 -16121
2320628538 63 -79 -55 -78 -343 -16135
2320634976 61 -75 -46 -89 -365 -16159
2320641411 62 -68 -36 -38 -380 -16141
2320647850 63 -85 -44 -67 -320 -16180
2320654295 68 -72 -42 -79 -382 -16085
2320660734 66 -63 -37 -85 -345 -16165
2320667178 78 -70 -45 -23 -375 -16140
2320673618 81 -71 -46 -57 -379 -16146
2320680051 80 -73 -36 -95 -372 -16216
2320686509 92 -70 -50 -99 -347 -16216
2320692948 106 -71 -45 -104 -402 -16187
2320699380 118 -58 -41 -64 -499 -16198
2320705821 242 -89 -22 -59 -204 -15762
2320712258 215 -54 -46 -56 -357 -16207
2320718716 221 -61 -53 -47 -370 -16221
2320725153 252 -68 -86 9 -489 -16275
2320731594 301 -72 -123 28 -486 -16336
2320738028 368 -44 -185 21 -432 -16355
2320744464 423 -65 -254 10 -425 -16331
2320750896 474 -85 -333 154 -367 -16453
2320757334 620 -142 -361 599 326 -16142
2320763745 717 88 -562 72 -800 -16713
2320770179 859 131 -663 -215 -413 -16411
2320776615 936 426 -799 -214 -681 -16471
2320783018 1025 388 -634 -167 -701 -16693
2320789414 1168 912 -1243 -3147 -300 -17300
2320795860 1506 154 -2181 -887 -739 -16178
2320802295 1592 -144 -1867 -1135 147 -16345
2320808734 1749 -139 -1873 -647 -43 -17406
2320815176 2112 -269 -2165 -682 64 -17924
2320821610 2439 56 -2422 -366 109 -17608
2320828054 3019 -540 -2299 1713 -785 -19145
2320834491 1859 -1327 -1670 1335 -809 -20357
2320840929 917 -1813 -1122 1558 -973 -22622
2320847363 1588 -1991 -805 1906 -916 -23251
2320853804 2632 -2297 -79 620 -2335 -23048
2320860245 3156 -2835 90 -730 -2331 -21830
2320866665 3493 -3601 359 -1363 -2425 -21960
2320873099 4240 -4876 623 -1216 -3759 -22316
2320879538 4920 -7258 1479 3554 94 -16059
2320885980 4668 -9699 2960 1131 -91 -17225
2320892411 4924 -11737 3823 124 -661 -16900
2320898853 4306 -11188 3354 475 -21 -15042
2320905289 3546 -10447 2750 -1617 -1425 -16131
2320911736 3434 -9365 1884 -484 -1213 -14728
2320918167 3280 -8875 1666 -3111 -2179 -15501
2320924608 3216 -8896 1525 -3553 -2541 -14991
2320931052 3268 -9505 1646 -5145 -1415 -14917
2320937485 3256 -10000 1920 -5092 -3202 -16397
2320944014 3888 -10668 1932 -5971 -3540 -15044
2320950460 4170 -10344 1378 -4970 -3909 -15596
2320956899 4639 -10245 1500 -5758 -3568 -15178
2320963332 4794 -10246 1213 -5284 -3383 -14112
2320969772 4407 -10406 1273 -8232 -4404 -13872
2320976221 4126 -10559 1342 -7512 -3956 -13675
2320982655 3959 -10802 1366 -7412 -3909 -12786
2320989093 3751 -10927 1230 -7063 -4046 -11055
2320995524 3236 -10493 1673 -6593 -2241 -9208
2321001957 2318 -10313 1799 -5913 -3848 -10872
2321008399 2432 -10234 1672 -5635 -3813 -9882
2321014836 2305 -9808 1289 -5375 -3662 -9598
2321021275 1840 -9363 1418 -5711 -3818 -10363
2321027712 1651 -8828 1120 -3993 -3909 -10536
2321034151 1041 -9153 1483 -4037 -4273 -9821
2321040585 29 -9955 2086 -4963 -4284 -12184
2321047023 -233 -9780 1571 -8775 -4214 -12304
2321053431 -73 -9976 867 -6700 -3446 -6348
2321059833 -902 -11976 1381 -5413 -2964 -8417
2321066262 -1984 -13313 2655 -8602 -3842 -9966
2321072694 -2331 -13923 2700 -8512 -4262 -10341
2321079129 -2997 -14010 2621 -12580 -5082 -12237
2321085574 -2978 -14129 1981 -11472 -3268 -12471
2321092011 -1984 -13761 1452 -12719 -2440 -13158
2321098451 -354 -12590 652 -9989 -1702 -9739
2321104892 187 -11979 1086 -11008 -2310 -7110
2321111324 -491 -12573 1452 -7569 -2193 -7498
2321117763 -998 -14533 2877 -7997 -2263 -6988
2321124204 -1872 -16594 4030 -10232 -1787 -6391
2321130644 -2786 -16891 3778 -12222 -2931 -6860
2321137092 -3403 -15016 3117 -14504 -2692 -6453
2321143526 -4358 -11649 2231 -16024 -1870 -7921
2321149986 -4484 -9186 1092 -12133 -1417 -9656
2321156424 -4332 -6869 968 -12376 -1837 -10240
2321162864 -4230 -7324 739 -13149 -2873 -12480
2321169303 -3153 -7851 290 -12502 -1791 -11417
2321175760 -1713 -8067 198 -12783 -1314 -10048
2321182201 -1998 -7831 819 -13575 -1776 -5595
2321188667 -3505 -7789 1601 -14675 -1098 -4422
2321195108 -5736 -7931 1921 -15153 -932 509
2321201548 -8471 -6762 2220 -14593 -1069 -2002
2321207984 -11140 -6022 2352 -15183 -747 -4109
2321214420 -12021 -5393 2105 -14924 -51 -7235
2321220856 -11879 -4782 1627 -13191 -48 -8414
2321227297 -11396 -3822 1667 -18301 -2899 -22769
2321233745 -8068 -5960 809 -15959 1115 -18201
2321240187 -5069 -7207 -171 -16139 -920 -6332
2321246616 -4465 -5466 -552 -13887 237 -3634
2321253056 -5178 -4905 -637 -13940 933 -3039
2321259576 -6045 -4371 -969 -10972 1064 -2015
2321266019 -7041 -3975 29 -12257 194 -2579
2321272457 -7485 -4349 537 -14403 838 -6635
2321278898 -6627 -4380 756 -15457 -145 -9310
2321285368 -4997 -3903 576 -16275 -1173 -9089
2321291811 -3458 -2929 130 -14624 -504 -6835
2321298247 -3244 -2273 -73 -14644 277 -4973
2321304689 -3508 -1883 -348 -16149 -162 -3618
2321311134 -3034 -2829 -773 -18098 -920 -4938
2321317545 -2206 -3826 -784 -15236 -575 -6743
2321323980 -2154 -3731 -636 -14281 -322 -6627
2321330417 -2176 -3213 -1185 -15951 -1385 -6181
2321336855 -1641 -3529 -1354 -15406 -1633 -6004
2321343302 -1064 -4050 -1455 -15674 -193 -4573
2321349742 -1192 -4785 -1630 -15079 595 -3722
2321356177 -1420 -5050 -1552 -15167 723 -3480
2321362623 -1343 -5721 -1482 -15988 390 -3609
2321369061 -1106 -6125 -1262 -16427 192 -3921
2321375497 -847 -6007 -876 -15992 -380 -4359
2321381931 -575 -5667 -536 -16142 -712 -3986
2321388371 -594 -5141 -518 -16171 -602 -3223
2321394812 -858 -4693 -598 -16014 -580 -3299
2321401215 -989 -3984 -743 -15688 -401 -3807
2321407650 -698 -3654 -830 -15719 -505 -3523
2321414091 -521 -3634 -837 -15633 -291 -2909
2321420524 -423 -3765 -961 -16162 -436 -2125
2321426956 -513 -3419 -1418 -16383 -433 -2464
2321433392 -455 -2937 -1619 -17304 -748 -1994
2321439827 -816 -2778 -1372 -16788 -1026 -903
2321446235 -1423 -2622 -2370 -18526 435 -913
2321452666 -2291 -4151 -3201 -18541 -54 -1423
2321459100 -2233 -4236 -1758 -19594 -133 -2823
2321465537 -1700 -3853 572 -18357 176 -2866
2321471976 -895 -3563 1933 -17634 61 -1872
2321478413 -866 -3486 1328 -16391 -621 -1183
2321484852 -1353 -3519 1005 -15885 -741 -1554
2321491295 -1967 -4170 1132 -15805 -693 -1681
2321497733 -2114 -4525 1247 -15294 -223 -1684
2321504176 -1910 -4088 783 -14945 117 -2005
2321510613 -1302 -3516 55 -14772 -158 -1973
2321517060 -713 -2846 -517 -14898 -255 -1314
2321523495 -245 -2268 -706 -15479 -574 -966
2321529957 -433 -1913 -609 -15906 -435 -1102
2321536405 -720 -1492 -587 -16141 -538 -1578
2321542839 -797 -1695 -478 -16375 -418 -889
2321549278 -799 -1742 -474 -16903 -82 -318
2321555709 -679 -1698 -221 -17662 195 -51
2321562150 -69 -1756 127 -18267 574 712
2321568607 1774 -1673 592 -17760 1013 1757
2321575050 1717 -1024 659 -17187 562 636
2321581582 1230 -778 930 -17696 -142 -693
2321588023 1213 -1382 1068 -16945 508 -1094
2321594455 1252 -1879 738 -15757 -601 272
2321600860 798 -1379 448 -15331 52 -535
2321607290 778 -924 94 -15651 -319 -1258
2321613748 846 -828 504 -15001 -807 -808
2321620189 643 -491 435 -15163 -764 -1159
2321626632 539 -817 263 -15073 -503 -899
2321633072 277 -1072 109 -15179 -773 -807
2321639508 -194 -1239 463 -13021 -1259 288
2321645942 -621 -995 1619 -18864 794 -765
2321652375 -688 -1727 914 -18917 -281 -552
2321658810 -728 -1593 315 -17737 -597 -653
2321665264 -529 -1392 651 -17665 -344 -433
2321671705 -449 -246 2132 -19900 160 27
2321678146 -333 -757 1938 -19622 222 -99
2321684581 -173 -1286 909 -15661 -625 -644
2321691020 -18 -258 1932 -17884 96 113
2321697427 -54 -343 1393 -17002 168 211
2321703862 -161 -231 1051 -13185 -561 -139
2321710308 -44 149 1348 -16535 321 224
2321716739 24 -498 496 -15953 276 -259
2321723172 161 -520 315 -15630 311 -207
2321729571 301 -409 651 -15951 491 61
2321736022 245 -310 522 -17265 749 122
2321742462 91 -431 -50 -16674 210 -223
2321748899 23 -17 -59 -16543 354 24
2321755311 -62 436 491 -18455 535 538
2321761745 -179 -61 3 -17699 732 158
2321768179 -194 -503 -274 -17015 562 5
2321774583 -181 -563 -208 -17036 652 125
2321781011 -221 -613 -165 -17181 552 19
2321787443 -192 -700 -207 -16827 472 64
2321793879 -206 -665 -266 -16335 392 490
2321800323 -335 -620 -396 -15925 -96 793
2321806765 -528 -834 -1029 -15392 832 478
2321813206 -689 -668 -766 -16159 742 105
2321819647 -296 -1149 -395 -16435 744 357
2321826087 -359 -1365 15 -16821 503 516
2321832491 -265 -1491 101 -17153 325 447
2321838929 -268 -1456 226 -17504 368 35
2321845364 -292 -1401 330 -17813 394 -379
2321851801 -337 -1161 355 -17502 116 -814
2321858240 -266 -511 173 -17314 72 -840
2321864673 -126 -48 -11 -17133 46 -86
2321871110 -40 177 -133 -16708 56 516
2321877549 -54 233 -193 -16398 47 990
2321883989 -65 153 -283 -16274 70 1239
2321890431 -30 -20 -358 -16060 84 1223
2321896846 49 -100 -337 -15831 195 954
2321903277 109 -193 -303 -15629 254 985
2321909711 122 -177 -239 -14764 141 863
2321916112 90 259 140 -15385 382 749
2321922628 117 188 42 -16867 313 795
2321929067 183 -317 -241 -16520 139 561
2321935529 142 -267 -229 -16761 214 530
2321941969 72 -182 -279 -17495 200 282
2321948412 72 -310 -488 -17305 47 221
2321954851 68 -159 -390 -17492 214 274
2321961290 91 -259 -390 -17210 344 226
2321967717 91 -104 -378 -16876 114 9
2321974121 118 132 -333 -16911 95 36
2321980554 46 398 -423 -16552 65 264
2321987000 16 570 -499 -16313 65 499
2321993434 -4 643 -510 -16186 102 734
2321999885 -73 594 -477 -16039 236 686
2322006349 -78 405 -383 -16111 240 659
2322012786 -63 161 -220 -16201 188 522
2322019226 -22 87 -189 -16169 140 335
2322025661 67 92 -250 -16265 76 139
2322032101 114 128 -272 -16273 119 309
2322038558 82 208 -178 -22891 -393 191
2322044999 10 -1280 -116 -16440 74 217
2322051443 18 -452 -89 -16669 93 953
2322057850 41 -139 -51 -16535 59 437
2322064284 70 -97 -60 -16469 168 449
2322070718 82 -101 -66 -16470 4 359
2322077163 109 -99 -77 -16521 29 316
2322083620 132 -90 -89 -16480 63 505
2322090054 121 -85 -97 -16478 185 441
2322096509 86 -83 -80 -16501 117 417
2322102948 73 -70 -82 -16518 74 564
2322109390 42 -14 -94 -16470 -6 541
2322115830 -19 6 -66 -16531 111 384
2322122264 -14 -18 -67 -16504 106 295
2322128668 5 -90 -84 -16492 121 138
2322135104 15 -207 -71 -16472 99 223
2322141534 13 -275 -72 -16488 73 364
2322147964 20 -297 -91 -16450 81 395
2322154399 8 -284 -79 -16509 98 450
2322160834 7 -247 -75 -16452 88 431
2322167273 29 -232 -95 -16446 122 221
2322173712 55 -275 -90 -16529 85 265
2322180145 53 -371 -68 -16516 105 263
2322186587 59 -484 -93 -16486 79 373
2322193024 64 -491 -90 -16495 86 500
2322199462 53 -473 -72 -16473 121 374
2322205869 52 -533 -87 -16504 60 565
2322212304 42 -529 -82 -16470 85 419
2322218745 22 -588 -72 -16470 29 527
2322225204 -3 -660 -91 -16439 18 578
2322231658 -41 -745 -90 -16444 50 538
2322238096 -73 -804 -78 -16521 37 604
2322244529 -80 -788 -93 -16456 44 716
2322250935 -97 -796 -101 -16483 5 700
2322257369 -113 -760 -74 -16486 22 711
2322263806 -116 -861 -92 -16494 111 400
2322270245 -77 -927 -108 -16481 98 500
2322276684 -65 -1062 -90 -16570 123 345
2322283210 24 -1104 -118 -16504 61 578
2322289648 47 -1169 -135 -16523 -82 1730
2322296086 10 -672 -88 -16530 48 946
2322302523 45 -760 -104 -16457 54 515
2322308959 67 -1088 -139 -16426 74 292
2322315391 38 -1260 -130 -16557 12 1172
2322321831 25 -1127 -124 -16502 22 1078
2322328264 34 -1054 -130 -16404 17 963
2322334698 31 -1083 -118 -16419 83 780
2322341142 34 -1217 -126 -16483 41 783
2322347581 46 -1427 -160 -16421 53 878
2322354016 44 -1540 -151 -16817 -674 3238
2322360455 -3 -81 4 -16465 7 767
2322366900 57 -204 -12 -16445 -15 1128
2322373350 55 -218 7 -16509 52 1301
2322379784 45 -169 -1 -16514 73 1243
2322386226 52 -157 -16 -16462 41 1195
2322392665 48 -134 -25 -16430 -11 1104
2322399107 44 -136 -8 -18044 820 1897
2322405577 50 -51 -61 -16468 -179 1014
2322412023 55 -170 -8 -16346 -23 1486
2322418460 50 -112 -12 -16389 -34 1099
2322424900 53 -162 -21 -16408 -73 959
2322431339 61 -256 10 -16449 82 1221
2322437780 50 -229 18 -16436 10 1193
2322444217 63 -261 9 -16493 -1 1235
2322450660 61 -255 13 -16434 18 1189
2322457114 53 -243 32 -16472 0 1140
2322463553 52 -268 33 -16536 32 1260
2322470013 62 -259 11 -16491 46 1261
2322476455 49 -210 9 -16478 46 1227
2322482888 52 -179 -2 -16510 92 1324
2322489325 55 -149 -29 -16441 81 1480
2322495761 50 -104 -27 -15662 -380 2900
2322502196 50 12 -78 -16453 -64 850
2322508634 53 -110 -55 -16470 32 1145
2322515075 48 -108 -27 -16509 81 1237
2322521511 48 -116 -24 -16435 33 1210
2322527941 54 -144 -32 -16423 39 1239
2322534379 44 -135 -15 -16568 54 1316
2322540815 35 146 -110 -16474 -107 662
2322547252 49 -76 -51 -16480 106 1339
2322553696 43 8 -63 -16487 49 1307
2322560133 40 17 -60 -16472 55 1235
2322566572 45 -22 -57 -16427 37 1167
2322573005 46 -38 -55 -16481 71 1230
2322579447 39 -11 -56 -16099 -162 847
2322585877 50 -120 -34 -16444 55 1179
2322592282 49 -124 -18 -16457 12 1163
2322598683 40 -114 -12 -16509 62 1197
2322605110 51 -136 -19 -16452 56 1260
2322611543 48 -117 -29 -16498 48 1250
2322617975 41 -85 -25 -16467 50 1298
2322624410 51 -65 -52 -16450 80 1246
2322630841 45 -65 -55 -16501 18 1265
2322637372 46 -52 -42 -16442 47 1217
2322643814 50 -73 -58 -16449 47 1176
2322650253 43 -86 -53 -16453 16 1213
2322656663 48 -76 -33 -16472 56 1172
2322663097 50 -99 -45 -16513 22 1169
2322669539 50 -123 -46 -16459 57 1274
2322675979 42 -106 -27 -16494 46 1249
2322682413 44 -95 -44 -16493 112 1225
2322688856 56 -94 -55 -16462 54 1226
2322695289 43 -78 -40 -16464 20 1245
2322701723 41 -65 -48 -16474 43 1257
2322708128 51 -68 -54 -16478 20 1179
2322714560 44 -71 -39 -16487 61 1210
2322720991 42 -63 -41 -16442 94 1246
2322727427 51 -87 -59 -16481 48 1204
2322733871 47 -80 -34 -16498 57 1226
2322740308 37 -78 -28 -16449 58 1221
2322746746 50 -94 -46 -16486 63 1218
2322753152 45 -90 -43 -16465 34 1217
2322759580 45 -85 -24 -16482 31 1250
2322766021 47 -94 -38 -16501 31 1225
2322772479 43 -93 -40 -16482 40 1224
2322778920 38 -87 -23 -16466 56 1251
2322785365 46 -93 -44 -16438 62 1302
2322791802 48 -77 -45 -16440 35 1228
2322798238 45 -58 -29 -16462 77 1188
2322804677 52 -78 -49 -16472 11 1206
2322811117 48 -89 -49 -16462 35 1213
2322817553 45 -77 -27 -16454 62 1202
2322823987 44 -81 -51 -16527 52 1230
2322830421 50 -96 -48 -16419 45 1224
2322836855 40 -85 -38 -16477 43 1242
2322843287 47 -98 -48 -16474 41 1204
2322849722 58 -101 -51 -16471 72 1211
2322856158 46 -94 -35 -16485 58 1262
2322862597 47 -102 -37 -16427 89 1318
2322869042 51 -80 -61 -16502 51 1262
2322875480 41 -48 -56 -16472 67 1253
2322881912 50 -50 -57 -16432 45 1238
2322888349 53 -69 -69 -16530 90 1215
2322894787 45 -68 -43 -16465 18 1241
2322901223 42 -73 -40 -16459 -17 1247
2322907656 50 -111 -50 -16498 51 1167
2322914118 43 -96 -30 -16482 50 1254
2322920553 43 -87 -30 -16467 42 1239
2322927005 48 -100 -46 -16467 36 1288
2322933447 45 -78 -37 -16454 34 1187
2322939908 43 -74 -34 -16454 71 1233
2322946348 50 -91 -47 -16450 83 1308
2322952782 44 -63 -38 -16460 13 1287
2322959224 41 -34 -47 -16435 32 1211
2322965664 49 -56 -60 -16474 44 1169
2322972103 46 -72 -41 -16490 16 1194
2322978561 43 -69 -32 -16469 -17 1202
2322985002 50 -91 -46 -16437 55 1283
2322991442 54 -86 -39 -16467 36 1237
2322997967 44 -79 -27 -16449 71 1215
2323004411 48 -92 -44 -16459 58 1270
2323010846 49 -87 -45 -16443 17 1245
2323017284 44 -85 -34 -16493 26 1210
2323023717 51 -102 -44 -16429 57 1196
2323030154 52 -121 -45 -16454 25 1226
2323036612 49 -117 -27 -16460 30 1250
2323043051 53 -123 -40 -16477 50 1206
2323049495 52 -127 -46 -16489 46 1276
2323055928 45 -95 -37 -16473 66 1229
2323062367 47 -82 -44 -16438 58 1257
2323068826 55 -78 -67 -16474 67 1252
2323075262 40 -55 -49 -16443 37 1250
2323081702 45 -49 -53 -16459 67 1226
2323088138 48 -56 -70 -16464 99 1266
2323094572 44 -45 -58 -16447 66 1218
2323101004 42 -45 -52 -16465 51 1214
2323107407 49 -41 -65 -16468 87 1206
2323113854 45 -34 -54 -16543 45 1233
2323120293 45 -41 -43 -16478 51 1233
2323126734 40 -61 -61 -16434 67 1210
2323133173 47 -79 -43 -16462 25 1149
2323139610 42 -85 -22 -16493 42 1228
2323146040 49 -113 -31 -16503 66 1234
2323152472 44 -126 -20 -16457 29 1240
2323158906 43 -134 -6 -16428 45 1276
2323165337 50 -147 -24 -16528 89 1322
2323171774 50 -115 -30 -16481 51 1303
2323178208 42 -78 -27 -16454 78 1312
2323184638 49 -72 -48 -16461 70 1292
2323191071 50 -54 -56 -16459 110 1300
2323197497 43 -18 -53 -16486 105 1243
2323203910 48 -19 -70 -16439 47 1222
2323210340 50 -38 -64 -16489 48 1237
2323216793 44 -41 -46 -16422 36 1183
2323223228 47 -71 -57 -16484 49 1190
2323229666 50 -109 -53 -16471 43 1202
2323236103 48 -103 -33 -16474 53 1241
2323242536 51 -100 -42 -16454 57 1260
2323248973 50 -116 -51 -16485 27 1229
2323255414 46 -93 -33 -16441 75 1294
2323261852 49 -77 -43 -16464 65 1321
2323268287 54 -75 -60 -16404 78 1240
2323274691 44 -62 -49 -16455 83 1230
2323281114 41 -61 -50 -16469 60 1284
2323287513 43 -74 -62 -16437 71 1274
2323293956 46 -63 -41 -16433 64 1199
2323300387 46 -55 -30 -16475 68 1208
2323306818 48 -89 -46 -16451 77 1196
2323313247 47 -94 -36 -16498 13 1192
2323319651 44 -97 -18 -16448 43 1264
2323326076 46 -99 -42 -16446 48 1263
2323332506 44 -90 -41 -16479 49 1257
2323338938 38 -76 -29 -16471 23 1289
2323345368 45 -84 -56 -16457 38 1254
2323351800 43 -76 -37 -16465 6 1277
2323358327 44 -53 -33 -16465 46 1238
2323364764 49 -70 -50 -16446 28 1245
2323371193 54 -87 -49 -16436 77 1279
2323377624 45 -75 -24 -16458 64 1262
2323384062 53 -95 -47 -16482 38 1196
2323390495 50 -92 -54 -16422 73 1291
2323396953 40 -70 -39 -16449 71 1265
2323403388 57 -90 -43 -16477 36 1223
2323409829 51 -101 -47 -16468 66 1291
2323416261 46 -91 -33 -16511 54 1232
2323422696 51 -104 -43 -16469 39 1211
2323429131 48 -124 -43 -16455 29 1287
2323435578 46 -111 -29 -16425 57 1226
2323442011 49 -117 -26 -16479 46 1264
2323448451 59 -134 -45 -16495 85 1234
2323454887 48 -108 -27 -16432 81 1215
2323461320 43 -76 -35 -16482 49 1286
2323467753 54 -94 -59 -16434 75 1247
2323474186 44 -77 -40 -16438 53 1240
2323480616 45 -74 -36 -16501 64 1209
2323487058 51 -86 -57 -16481 41 1253
2323493500 47 -75 -38 -16458 61 1292
2323499959 42 -50 -41 -16441 50 1265
2323506398 50 -73 -48 -16453 40 1251
2323512829 46 -59 -48 -16421 47 1323
2323519262 41 -48 -40 -16453 37 1237
2323525699 47 -68 -59 -16470 63 1207
2323532134 48 -80 -44 -16437 12 1214
2323538573 38 -71 -33 -16444 29 1225
2323545012 52 -90 -45 -16495 -8 1232
2323551444 51 -99 -29 -16451 63 1267
2323557876 43 -93 -22 -16469 66 1262
2323564288 47 -104 -41 -16431 60 1245
2323570721 51 -99 -35 -16497 89 1220
2323577164 48 -92 -30 -16437 71 1239
2323583619 48 -99 -43 -16529 21 1257
2323590056 52 -99 -39 -16506 102 1317
2323596508 43 -72 -46 -16456 71 1239
2323602941 51 -79 -55 -16504 83 1276
2323609379 54 -85 -61 -16469 48 1261
2323615812 46 -61 -46 -16503 58 1236
2323622310 48 -59 -54 -16493 104 1212
2323628849 51 -77 -57 -16534 68 1227
2323635323 41 -66 -41 -16476 22 1206
2323641757 46 -75 -49 -16455 50 1214
2323648192 52 -101 -53 -16470 65 1250
2323654623 43 -87 -38 -16439 63 1285
2323661030 48 -78 -39 -16427 30 1266
2323667429 49 -88 -53 -16463 69 1218
2323673871 45 -78 -35 -16463 90 1245
2323680316 41 -61 -40 -16474 92 1259
2323686749 49 -62 -56 -16433 70 1250
2323693224 42 -54 -53 -16485 73 1229
2323699757 42 -46 -34 -16476 35 1224
2323706260 48 -57 -58 -16470 38 1258
2323712733 43 -57 -43 -16480 74 1263
2323719261 34 -59 -39 -16504 60 1221
2323725711 54 -91 -39 -16451 41 1260
2323732144 47 -100 -32 -16474 53 1221
2323738594 47 -97 -17 -16456 63 1237
2323745032 54 -115 -41 -16438 36 1256
2323751469 54 -119 -33 -16474 67 1248
2323757900 38 -92 -19 -16490 80 1287
2323764302 50 -92 -45 -16429 56 1312
2323770726 50 -68 -60 -16448 48 1311
2323777162 42 -29 -49 -16514 43 1243
2323783619 45 -52 -66 -16440 47 1248
2323790057 51 -70 -50 -16446 50 1264
2323796508 47 -60 -46 -16538 73 1241
2323802944 46 -82 -44 -16450 52 1235
2323809438 48 -99 -53 -16413 33 1287
2323815960 49 -83 -33 -16524 38 1209
2323822473 48 -111 -43 -16491 51 1278
2323828988 53 -120 -43 -16448 50 1277
2323835470 46 -99 -26 -16493 37 1255
2323841904 48 -112 -42 -16480 20 1271
2323848337 49 -120 -39 -16501 53 1259
2323854771 43 -96 -31 -16491 71 1265
2323861204 49 -96 -38 -16399 54 1309
2323867635 48 -107 -47 -16452 60 1253
2323874063 40 -104 -35 -16461 32 1253
2323880552 47 -100 -28 -16515 62 1471
2323887079 55 -119 -42 -16471 72 1264
2323893582 43 -109 -21 -16449 67 1241
2323900133 40 -100 -22 -16421 30 1285
2323906645 46 -115 -40 -16470 70 1219
2323913170 51 -112 -22 -16475 60 1301
2323919675 41 -98 -25 -16448 26 1281
2323926180 49 -120 -41 -16452 64 1045
2323932705 40 -121 -17 -16453 60 1294
2323939205 40 -94 -18 -16483 86 1331
2323945727 45 -81 -51 -16478 60 1294
2323952225 45 -69 -40 -16477 75 1278
2323958754 41 -57 -31 -16461 53 1307
2323965228 46 -69 -51 -16517 66 1312
2323971660 47 -67 -36 -16465 67 1238
2323978088 41 -78 -33 -16430 57 1291
2323984517 48 -88 -49 -16465 45 1259
2323990956 42 -85 -46 -16499 70 1319
2323997385 44 -77 -37 -16498 72 1297
2324003818 49 -83 -49 -16467 86 1297
2324010244 50 -83 -56 -16432 63 1306
2324016679 42 -52 -45 -16438 94 1335
2324023106 50 -58 -60 -16458 59 1229
2324029588 51 -68 -59 -16476 50 1322
2324036124 49 -54 -44 -16461 10 1278
2324042655 49 -67 -51 -16457 41 1255
2324049153 51 -98 -47 -16425 71 1248
2324055682 49 -94 -35 -16445 82 1307
2324062216 51 -90 -40 -16479 82 1279
2324068743 55 -112 -53 -16456 45 1276
2324075247 47 -89 -37 -16448 82 1324
2324081865 50 -79 -50 -16471 76 1292
2324088392 50 -85 -58 -16479 72 1239
2324094927 43 -84 -42 -16461 75 1255
2324101462 45 -79 -47 -16452 41 1287
2324107964 51 -84 -60 -16457 92 1295
2324114493 47 -51 -45 -16470 99 1278
2324120962 43 -50 -56 -16431 56 1285
2324127396 52 -67 -65 -16461 74 1260
2324133827 44 -57 -42 -16491 49 1231
2324140231 41 -69 -35 -16498 50 1226
2324146664 47 -95 -41 -16429 89 1344
2324153102 46 -80 -34 -16450 34 1283
2324159533 38 -71 -29 -16464 36 1220
2324165969 48 -98 -40 -16470 88 1201
2324172414 49 -92 -32 -16454 128 1330
2324178855 41 -76 -30 -16471 48 1249
2324185261 49 -93 -47 -16498 46 1307
2324191691 48 -93 -41 -16432 93 1280
2324198139 47 -75 -29 -16486 77 1293
2324204586 50 -82 -50 -16451 69 1275
2324211023 50 -91 -38 -16481 56 1237
2324217458 43 -85 -21 -16431 61 1274
2324223905 48 -94 -47 -16473 95 1331
2324230339 50 -93 -42 -16496 83 1301
2324236791 45 -87 -27 -16463 33 1288
2324243223 46 -97 -45 -16463 64 1264
2324249660 52 -106 -40 -16470 93 1263
2324256091 51 -85 -38 -16478 85 1295
2324262529 43 -82 -42 -16453 66 1319
2324268929 50 -90 -56 -16435 69 1278
2324275365 43 -69 -47 -16468 88 1281
2324281801 42 -76 -53 -16449 45 1257
2324288234 50 -89 -62 -16464 96 1338
2324294641 43 -51 -37 -16503 71 1353
2324301065 43 -46 -52 -16461 51 1269
2324307494 53 -58 -68 -16482 108 1035
2324313930 44 -33 -58 -16473 52 1296
2324320365 41 -31 -57 -16444 76 1223
2324326799 46 -61 -60 -16420 42 1268
2324333225 46 -69 -40 -16443 78 1265
2324339654 41 -62 -32 -16445 99 1232
2324346082 51 -73 -57 -16498 102 1235
2324352484 46 -88 -41 -16452 74 1299
2324358906 38 -64 -33 -16471 26 1286
2324365333 46 -70 -46 -16473 113 1263
2324371758 46 -76 -41 -16476 48 1290
2324378190 40 -68 -23 -16419 36 1268
2324384622 51 -85 -53 -16423 50 1232
2324391062 53 -78 -41 -16456 43 1285
2324397495 41 -71 -32 -16481 86 1267
2324403933 47 -85 -46 -16472 79 1243
2324410364 49 -85 -50 -16414 95 1245
2324416800 49 -76 -35 -16485 74 1296
2324423238 48 -83 -53 -16422 102 1263
2324429665 46 -78 -57 -16441 75 1342
2324436098 45 -53 -47 -16463 30 1307
2324442613 48 -56 -59 -16504 74 1244
2324449048 51 -67 -69 -16471 79 1518
2324455474 43 -51 -51 -16496 63 1283
2324461907 48 -55 -60 -16479 77 1326
2324468338 54 -58 -69 -16500 46 1295
2324474779 45 -44 -51 -16454 43 1227
2324481212 49 -62 -53 -16505 22 1252
2324487647 51 -83 -56 -16445 96 1301
2324494090 46 -66 -49 -16467 50 1292
2324500492 44 -66 -45 -16482 65 1264
2324506925 48 -63 -62 -16467 80 1277
2324513349 45 -51 -48 -16489 83 1257
2324519780 42 -52 -39 -16462 62 1290
2324526227 47 -72 -50 -16466 29 1280
2324532632 47 -63 -47 -16449 60 1200
2324539061 42 -63 -31 -16431 57 1303
2324545489 45 -80 -45 -16457 55 1276
2324551932 45 -64 -42 -16449 82 1260
2324558366 44 -53 -33 -16464 52 1243
2324564816 49 -54 -57 -16451 58 1240
2324571287 47 -37 -56 -16476 54 1277
2324577757 41 -23 -47 -16498 69 1289
2324584234 47 -19 -70 -16474 63 1250
2324590721 45 -11 -73 -16465 58 1261
2324597195 44 1 -56 -16478 73 1281
2324603671 53 3 -77 -16479 53 1278
2324610100 45 2 -90 -16435 39 1260
2324616578 43 21 -78 -16487 19 1256
2324623049 47 2 -78 -16465 66 1196
2324629522 50 -18 -81 -16459 73 1208
2324635994 40 -18 -63 -16430 47 1219
2324642426 44 -32 -70 -16453 58 1227
2324648900 53 -37 -81 -16493 38 1232
2324655381 41 -21 -68 -16436 45 1219
2324661851 49 -21 -70 -16433 4 1211
2324668337 51 -57 -76 -16451 29 1238
2324674813 46 -51 -60 -16437 17 1207
2324681286 41 -53 -58 -16474 39 1220
2324687760 56 -76 -65 -16470 83 1258
2324694234 40 -67 -46 -16454 -1 1198
2324700668 48 -77 -48 -16459 58 1249
2324707143 50 -79 -55 -16480 83 1261
2324713618 44 -52 -47 -16483 48 1239
2324720090 39 -31 -46 -16455 76 1263
2324726573 47 -26 -68 -16460 59 1220
2324733052 38 -6 -63 -16448 67 1215
2324739523 39 22 -63 -16460 48 1218
2324745998 43 9 -84 -16438 47 1229
2324752470 41 22 -83 -16442 81 1219
2324758926 35 38 -66 -16481 46 1221
2324765392 46 15 -85 -16487 43 1202
2324771854 43 2 -74 -16488 25 1190
2324778336 39 -2 -58 -16430 16 1206
2324784798 45 -75 -53 -16483 59 1292
2324791230 40 -50 -57 -16479 31 1203
2324797705 40 -49 -38 -16431 23 1231
2324804272 44 -61 -57 -16455 55 1227
2324810761 47 -39 -52 -16481 14 1228
2324817233 48 -30 -49 -16457 21 1211
2324823719 46 -39 -62 -16472 37 1216
2324830195 45 -30 -64 -16480 46 1185
2324836671 42 -45 -45 -16456 2 1078
2324843098 49 -92 -51 -16464 39 1157
2324849573 99 -151 -40 -16548 159 1522
2324856042 51 -146 -28 -16533 21 1174
2324862522 64 -152 -42 -16639 -192 1121
2324868998 338 -103 -300 -17684 941 757
2324875475 503 -408 -833 -17946 487 708
2324881954 491 -494 -1286 -18181 -600 1068
2324888415 412 -463 -2017 -19612 -1401 1024
2324894898 174 -578 -2984 -18725 -478 1007
2324901380 78 268 -3528 -19000 -1429 256
2324907849 3 2223 -3994 -18537 -967 47
2324914307 -403 4110 -4453 -19424 -609 290
2324920770 -777 4579 -5182 -16793 -469 -796
2324927231 73 2756 -4490 -19288 -1350 1430
2324933705 360 1931 -3613 -18246 -576 2138
2324940191 485 1395 -2965 -18327 -653 1612
2324946669 674 873 -2874 -18315 -1129 971
2324953140 979 756 -2833 -17837 -1307 171
2324959612 1118 1388 -3272 -18119 -1242 -386
2324966045 1314 1826 -4054 -17632 -1953 -796
2324972506 1630 1850 -4175 -17732 -2279 -1310
2324978994 2106 1665 -4440 -16880 -1664 -1097
2324985477 2207 1596 -5319 -16638 -1715 -566
2324991905 2219 1428 -6161 -15334 -2025 836
2324998376 1695 1406 -6376 -16061 -2343 1906
2325004848 1176 1061 -6917 -15365 -3223 2362
2325011320 636 587 -7164 -15171 -2854 1241
2325017797 707 83 -7330 -14790 -2917 640
2325024269 851 20 -7740 -16591 -4170 1086
2325030745 843 102 -8091 -16782 -4522 1401
2325037233 574 398 -8260 -18235 -4816 1511
2325043705 -82 803 -8583 -17298 -4251 1454
2325050177 -872 2075 -9272 -15286 -3497 971
2325056636 -1106 1616 -8689 -14960 -3485 154
2325063110 -678 1674 -8507 -15283 -4816 -971
2325069573 226 171 -7324 -10725 -4222 -1315
2325076032 1513 -1208 -5138 -11400 -4052 -1376
2325082506 2134 -1242 -4721 -16496 -5388 -432
2325088995 2041 636 -6193 -18121 -6348 306
2325095473 937 3415 -7854 -12363 -5004 1805
2325101942 257 3037 -6459 -12817 -4366 1234
2325108412 6 2928 -6357 -12993 -5224 340
2325114900 21 2872 -6582 -13682 -5558 303
2325121374 312 2486 -6873 -13498 -6085 19
2325127846 313 2417 -7440 -14778 -6238 -274
2325134324 408 2711 -8259 -14767 -7364 -1384
2325140898 647 3194 -9151 -14793 -7245 -1237
2325147377 1365 1964 -8896 -8910 -4512 -2329
2325153855 3809 -3103 -6334 -13088 -8741 -659
2325160321 4174 -2299 -7386 -20286 -10088 -510
2325166813 3439 1988 -10961 -16698 -10919 4253
2325173284 963 5426 -12373 -13065 -7677 2888
2325179756 -40 2821 -11561 -12525 -7199 -621
2325186230 114 -1027 -10052 -7204 -9943 -4880
2325192716 1885 -723 -8990 -14436 -10663 -3676
2325199193 3111 255 -8698 -12717 -9361 -1267
2325205667 3094 377 -7414 -11288 -9183 653
2325212140 1797 232 -6489 -7636 -9290 -146
2325218621 968 -70 -4311 -12935 -10949 -1172
2325225098 596 -297 -2391 -9970 -10346 -5207
2325231518 1284 -533 -628 -11553 -9708 -7516
2325237996 3591 -1637 1283 -4438 -7706 -6512
2325244471 5182 -3722 4195 -9147 -7533 221
2325250953 4121 -4637 4895 -16401 -8722 5401
2325257430 1994 -3318 2647 -18334 -10266 5234
2325263906 -365 -2066 446 -16468 -11904 3831
2325270378 -1957 -1921 -91 -15088 -11833 516
2325276855 -1807 -1795 117 -15159 -11196 -1106
2325283322 -580 -1604 484 -16866 -11376 -1154
2325289805 242 -1689 262 -18917 -12480 -513
2325296283 500 -1669 -549 -20281 -13611 -593
2325302759 737 -1467 -1894 -21154 -13301 -1262
2325309230 1239 -1173 -3266 -20759 -12075 -1561
2325315716 1877 -1091 -4875 -18970 -11256 -2389
2325322190 2436 -976 -5735 -17375 -10437 -2710
2325328673 2782 -938 -6624 -16089 -9179 -3411
2325335153 3679 -906 -6832 -13981 -8936 -2324
2325341615 4365 -953 -6914 -11895 -9129 -138
2325348085 4701 -1159 -6811 -11136 -9137 1369
2325354559 4761 -1353 -6697 -9983 -9709 2582
2325361043 4715 -1462 -6517 -9379 -10061 3269
2325367520 4443 -1454 -6112 -9428 -10386 3283
2325374014 4133 -1172 -5647 -10138 -10661 2378
2325380479 3628 -600 -5387 -10411 -10735 2340
2325386940 3686 -166 -5267 -9643 -10770 2482
2325393420 3733 139 -4672 -9152 -11012 2679
2325399904 3885 294 -4452 -9427 -11425 3196
2325406374 4059 281 -4205 -9433 -12240 3844
2325412832 4251 175 -3991 -9710 -12079 4383
2325419307 4226 295 -3925 -9550 -11683 4714
2325425771 3909 548 -3589 -8981 -11993 4406
2325432237 3258 857 -3783 -9249 -11594 4726
2325438672 2629 1115 -3814 -8931 -11243 5558
2325445153 2120 1747 -3790 -7866 -11262 5628
2325451616 1719 1606 -3587 -7230 -11455 5150
2325458213 1529 1449 -3194 -7527 -11460 4278
2325464713 1436 1184 -2998 -7701 -11406 4026
2325471191 1332 854 -2814 -7863 -11896 4032
2325477661 1219 408 -2526 -8451 -12537 4200
2325484121 1100 256 -2360 -9173 -13216 4477
2325490594 855 220 -2401 -9495 -13608 4629
2325497063 347 320 -2503 -9690 -13453 4487
2325503523 -106 483 -2555 -10427 -13401 3451
2325510004 -298 676 -2574 -10643 -13537 2397
2325516479 11 934 -2706 -10175 -13645 1851
2325522952 434 1076 -2771 -9166 -13679 2352
2325529428 808 1104 -2677 -8672 -13481 3015
2325535920 1199 1165 -2613 -8021 -13473 3417
2325542385 1657 1008 -2479 -7604 -13619 3750
2325548865 1864 907 -2339 -7624 -13269 4530
2325555329 1691 973 -2318 -7696 -12326 5032
2325561809 1188 1033 -2195 -7071 -12676 4535
2325568282 724 1056 -1776 -8351 -13126 3171
2325574756 442 1136 -1529 -9258 -13381 2041
2325581247 402 1457 -1484 -9232 -13578 2522
2325587714 340 1840 -1364 -8964 -14160 3533
2325594191 148 2107 -1099 -9090 -14802 4166
2325600662 -10 2026 -1105 -9348 -14863 4145
2325607115 -128 1645 -1341 -8650 -14161 3651
2325613583 -171 1377 -1353 -7762 -13105 2825
2325620054 -222 1277 -828 -7345 -12246 2446
2325626510 -395 1499 -624 -7722 -11996 2085
2325632960 -605 1719 -284 -8156 -12746 1741
2325639408 -779 1797 -20 -9219 -13095 1765
2325645863 -878 1777 -51 -9618 -13340 1774
2325652327 -782 1670 -164 -8803 -13322 1453
2325658795 -623 1418 -179 -8091 -12769 1284
2325665262 -607 1278 -99 -7209 -12173 1303
2325671714 -709 1281 112 -6641 -11441 1197
2325678164 -805 1238 387 -6405 -11131 598
2325684609 -367 1206 -5 -27437 -15844 -14887
2325691052 3306 3034 -5654 -14967 -16725 -5989
2325697513 4217 4660 -5959 -8456 -12853 410
2325703963 2871 6009 -4937 -13245 -12825 1137
2325710411 2175 7197 -5360 -11547 -14495 -727
2325716870 2141 7632 -5150 -9490 -14234 2323
2325723319 1525 7952 -4852 -9472 -13758 3081
2325729770 878 8538 -4966 -9386 -13847 2628
2325736220 801 8267 -4950 -8913 -13740 2711
2325742677 641 7364 -4873 -8354 -13158 3064
2325749125 -88 6287 -4609 -7597 -11837 3178
2325755578 -813 5478 -4538 -7728 -11323 1505
2325762033 -1610 4796 -4294 -7652 -12122 902
2325768479 -2291 4283 -4282 -7944 -12150 930
2325774930 -2948 3659 -3928 -7261 -12474 721
2325781488 -3311 2846 -3567 -7864 -12511 -512
2325787942 -3604 3397 -3575 -7034 -11726 -1118
2325794391 -3884 3798 -3181 -7073 -11111 -154
2325800846 -4464 3602 -3609 -8084 -11791 872
2325807295 -5057 3197 -5244 -6898 -11924 -496
2325813752 -4902 2903 -6182 -6984 -12165 255
2325820215 -4631 2764 -7485 -8483 -13409 -5
2325826670 -4086 2618 -8906 -5846 -14429 -649
2325833114 -3115 1924 -8839 -3883 -14854 101
2325839550 -1884 195 -7534 -3602 -15496 -2558
2325845982 -258 -2160 -5236 -2524 -15227 -2933
2325852417 423 -2687 -2694 -3071 -15076 -1889
2325858852 632 -1868 -306 -4671 -15667 -2799
2325865284 629 -597 1233 -6297 -16999 -4567
2325871720 1092 445 1992 -8366 -17544 -3641
2325878150 1426 1908 1636 -8831 -17220 -1540
2325884580 1449 2074 1149 -8982 -18023 -228
2325891025 1270 2132 377 -10561 -18212 -1340
2325897456 1395 2572 -1408 -11558 -19043 -207
2325903907 890 2287 -1954 -7994 -13847 -1671
2325910339 553 2627 -1606 -6601 -14965 -1327
2325916771 279 2611 -1844 -6279 -15219 -2083
2325923202 419 2152 -2247 -5572 -15036 -1786
2325929637 749 1712 -2690 -5678 -14811 -2224
2325936072 1432 1432 -3223 -5789 -15150 -1242
2325942471 1694 1293 -3945 -5306 -14458 -1023
2325948906 2395 1692 -4576 -4642 -15135 -1346
2325955335 2491 1863 -4779 -3781 -15656 330
2325961770 1892 2268 -4902 -3862 -15737 41
2325968197 901 2525 -4657 -4220 -15513 -477
2325974628 674 2820 -4015 -4341 -15896 -896
2325981052 510 2971 -3067 -4282 -15912 -325
2325987478 236 3004 -1845 -4602 -16267 -473
2325993909 200 2939 -857 -4845 -16461 -430
2326000343 104 2823 12 -5261 -16761 -571
2326006793 161 2754 519 -5169 -16577 -534
2326013224 211 2742 582 -4834 -16296 -544
2326019654 294 2392 222 -4755 -15698 -781
2326026082 257 2344 -848 -4759 -15582 -1146
2326032510 132 2168 -2044 -5578 -15421 -1119
2326038938 51 2222 -3796 -5966 -15763 -1154
2326045368 137 2132 -5030 -6370 -16296 -1027
2326051795 257 2019 -5796 -5601 -16588 -998
2326058220 362 1884 -6219 -4728 -16383 -1007
2326064647 666 1698 -6343 -3897 -16453 -761
2326071073 830 1608 -6224 -3592 -16397 -615
2326077497 1117 1383 -5978 -3865 -17205 -661
2326083927 1194 1420 -5464 -3954 -18101 -1075
2326090352 1265 1869 -4823 -2970 -17914 -1267
2326096867 939 1962 -3762 -1700 -17329 -33
2326103303 680 1651 -2669 -2827 -12968 -1144
2326109735 1512 661 -2940 -2403 -13312 -1093
2326116163 1718 648 -3349 -2750 -14712 -2441
2326122593 2036 1249 -4088 -1506 -15116 -1319
2326129022 1553 1392 -3863 -1600 -15436 -874
2326135467 1076 1001 -3487 -1294 -15894 351
2326141904 980 714 -3861 -1539 -18292 -401
2326148338 1235 277 -3878 -2134 -18946 -648
2326154773 874 95 -3415 -3519 -20004 -79
2326161207 181 217 -3486 -3473 -19522 -441
2326167634 42 367 -3470 -3436 -18781 -1322
2326174068 342 972 -3493 -1618 -16963 232
2326180517 98 813 -3216 -1871 -16348 -367
2326186928 22 537 -2831 -1154 -16179 -77
2326193376 82 297 -2469 -240 -16881 -767
2326199831 1423 189 -1549 781 -16697 1096
2326206298 1255 -268 -731 -721 -17652 -71
2326212762 257 -150 -614 -1285 -18655 -1073
2326219212 -61 373 -1002 -1764 -17981 -1070
2326225650 44 670 -1424 -1276 -16113 -474
2326232085 377 944 -1694 -687 -15578 -649
2326238517 602 1003 -1739 -711 -15921 -140
2326244947 627 918 -1311 -574 -16691 -36
2326251377 443 796 -1344 -457 -16614 -34
2326257811 343 741 -1052 -354 -15981 -832
2326264248 736 880 -1231 -650 -16477 434
2326270685 597 621 -1239 -1544 -16384 -3
2326277119 497 635 -1180 -1420 -15577 -580
2326283556 611 738 -1256 -941 -16298 -155
2326290007 695 787 -1528 -330 -16206 53
2326296451 532 768 -1196 -597 -16348 326
2326302883 447 593 -995 -846 -16517 294
2326309318 254 499 -981 -956 -16515 34
2326315757 235 393 -942 -972 -16666 112
2326322194 264 265 -809 -971 -16780 10
2326328628 306 230 -571 -754 -17011 -248
2326335078 434 170 -592 -363 -16528 189
2326341512 456 127 -576 24 -16597 -201
2326347947 401 65 -536 222 -16576 -253
2326354374 349 62 -602 379 -16618 -65
2326360804 300 8 -554 376 -16607 -247
2326367212 317 -26 -462 -77 -16559 -141
2326373649 352 -99 -307 -390 -16351 -151
2326380075 315 -92 -209 -442 -16406 -173
2326386511 221 -42 -151 -855 -16517 -341
2326392944 207 106 -291 -826 -16825 -209
2326399383 229 216 -497 -622 -17566 -184
2326405822 319 425 -746 -391 -17738 -195
2326412259 472 418 -865 210 -17384 852
2326418685 287 164 -710 -33 -17061 195
2326425117 306 13 -799 -542 -16239 -9
2326431632 375 92 -1105 -807 -16184 -132
2326438068 430 219 -1308 -490 -16781 218
2326444496 432 448 -1518 -72 -16758 105
2326450929 219 464 -1352 103 -16888 789
2326457330 11 250 -986 -186 -16994 293
2326463753 72 129 -778 -665 -16466 327
2326470176 6 94 -799 -349 -16530 259
2326476609 103 -81 -396 228 -16650 -62
2326483041 47 -85 -21 179 -16262 -98
2326489474 -31 -96 230 -264 -16061 436
2326495879 6 -165 136 -454 -16419 116
2326502308 165 -281 -50 -398 -16781 -465
2326508732 27 -222 -167 237 -17363 115
2326515162 -335 -16 -58 168 -17281 84
2326521592 -387 -5 56 436 -17155 57
2326528021 -288 -33 91 211 -16514 361
2326534458 -283 -47 66 51 -16076 158
2326540886 -253 -116 -45 -16 -16491 130
2326547321 -336 7 -205 -90 -16586 3
2326553754 -257 28 -354 -167 -16656 -59
2326560161 -255 -2 -420 -130 -16853 -261
2326566608 -428 -27 -213 66 -16936 -243
2326573041 -496 158 -194 -163 -16291 233
2326579474 -349 73 -396 56 -16167 -230
2326585912 334 -126 240 -1618 -16093 2417
2326592344 48 502 -31 -973 -16707 941
2326598776 -6 -172 -219 -63 -16804 280
2326605177 -90 -225 -263 -42 -16563 -471
2326611601 76 -384 -335 -330 -16703 -392
2326618002 100 -199 -400 89 -16672 181
2326624429 108 -109 -351 258 -16545 -459
2326630857 185 -107 -278 535 -16468 -115
2326637292 201 -68 -130 404 -16542 175
2326643750 -36 -77 131 1216 -16190 -1675
2326650185 423 -572 277 -358 -16737 -239
2326656618 449 -235 216 -90 -16642 -212
2326663047 451 -109 196 85 -16585 -167
2326669486 444 -51 286 438 -16491 103
2326676025 430 -76 431 388 -16504 183
2326682563 420 -166 511 135 -16628 145
2326689089 436 -276 519 -293 -16641 -177
2326695640 477 -255 444 -458 -16713 -196
2326702265 530 -139 312 -528 -16669 -189
2326708876 570 -9 207 -476 -16668 -159
2326715425 607 151 150 -101 -16672 58
2326721866 567 275 158 -227 -16588 -158
2326728323 676 231 171 83 -16560 -18
2326734768 682 423 212 -296 -16656 115
2326741206 678 614 309 947 -16364 433
2326747641 714 538 577 495 -16481 167
2326754076 604 661 785 -3388 -18202 -1181
2326760514 1229 69 -140 1528 -16417 -304
2326767017 1336 337 52 -379 -16632 736
2326773564 1291 97 35 -160 -16647 325
2326780170 1332 -30 13 -163 -16636 403
2326786877 1329 -41 -22 139 -16764 934
2326793423 1153 -72 52 -861 -16726 281
2326799915 1124 133 95 230 -16362 -3536
2326806519 2249 -38 -45 145 -16150 -3386
2326813100 2971 51 46 -2117 -15965 3253
2326819641 2459 62 -249 621 -16752 2299
2326826080 1898 70 -71 390 -16795 3306
2326832515 1317 -92 33 -383 -16812 2780
2326838954 860 -113 -3 -495 -16593 1106
2326845393 785 -125 12 -266 -16678 1125
2326851832 748 -104 23 -424 -16437 -311
2326858332 972 -96 -1 -484 -16155 4046
2326864885 757 -118 -4 -140 -16493 29
2326871362 1036 -44 -67 424 -16573 827
2326877974 680 -70 1 15 -16492 1859
2326884593 515 -29 -38 30 -16597 1762
2326891211 74 -230 -51 -654 -16162 -2086
2326897803 726 -29 -65 184 -16850 810
2326904409 724 -61 -34 63 -16760 1001
2326910955 684 -68 -26 -219 -16676 1665
2326917396 587 -51 -41 1 -16626 852
2326923855 629 -46 -42 -130 -16575 1552
2326930296 432 -119 -85 330 -16393 1115
2326936734 508 -76 -38 -153 -16660 668
2326943165 667 -78 -46 -54 -16553 843
2326949593 714 -112 -107 -593 -16839 2199
2326956022 805 -2 -103 423 -16474 714
2326962427 911 -87 45 -336 -16393 2278
2326968826 873 -226 180 -1726 -16129 -1781
2326975257 1778 -104 37 -2067 -16056 -540
2326981690 2496 63 -219 361 -16882 3359
2326988269 1688 -57 -134 227 -16995 4176
2326994820 1005 -202 11 -132 -16626 1488
2327001260 987 -177 19 329 -15982 3038
2327007691 970 -159 -5 -289 -16548 -431
2327014128 1187 -91 -27 -121 -16606 2070
2327020566 1127 -77 -46 -463 -16533 900
2327027003 1247 -74 -69 -239 -16524 2233
2327033508 1075 -112 -51 -508 -16555 2018
2327040139 919 -88 -67 -284 -16459 1969
2327046782 831 -81 -80 -162 -16283 1826
2327053400 471 -49 29 -203 -17111 893
2327060025 209 -78 29 -216 -16722 1293
2327066604 228 -43 78 -467 -16637 1721
2327073158 199 -53 81 -464 -16426 2071
2327079626 49 -91 -42 562 -16586 -378
2327086241 249 -35 -62 -2327 -16758 3399
2327092825 154 -42 26 -684 -16740 1662
2327099368 135 -35 64 326 -16779 1111
2327105815 163 -51 75 -375 -16505 2183
2327112251 119 -67 48 -124 -16482 1907
2327118687 39 -74 -43 210 -16193 2023
2327125118 189 -34 106 -617 -16561 2515
2327131556 107 -51 -8 -399 -16537 2018
2327138094 69 -58 -26 -214 -16514 1911
2327144677 68 -66 -36 -308 -16567 1944
2327151226 20 -76 -75 -930 -16732 3351
2327157668 94 -46 49 -1094 -16582 2139
2327164118 56 -68 -32 -4 -16541 2162
2327170546 79 -68 3 -238 -16584 1905
2327176981 70 -64 3 -75 -16580 1792
2327183416 86 -64 11 -185 -16550 1851
2327189907 83 -61 3 -207 -16560 1842
2327196535 77 -58 28 -316 -16535 1821
2327203085 75 -64 -1 -290 -16536 1909
2327209526 65 -61 0 -392 -16532 1619
2327215969 41 -56 -16 -345 -16555 1953
2327222400 61 -65 -32 23 -16519 2039
2327228840 57 -83 -37 -285 -16523 1613
2327235271 49 -64 -38 -12 -16457 1808
2327241747 65 -70 -47 -24 -16396 1719
2327248385 75 -74 -21 -335 -16595 2031
2327254972 69 -67 -22 -267 -16514 1804
2327261567 72 -67 -30 -177 -16608 1819
2327268201 69 -66 -32 -246 -16541 1880
2327274819 65 -59 -35 -241 -16561 1867
2327281406 61 -71 -35 -295 -16567 1883
2327287947 57 -77 -41 -191 -16548 1878
2327294391 49 -75 -36 -215 -16567 1945
2327300822 37 -79 -44 -238 -16534 1859
2327307258 41 -84 -44 -323 -16570 1893
2327313696 32 -74 -48 -273 -16602 1876
2327320135 18 -77 -61 -242 -16527 1880
2327326572 27 -83 -74 -234 -16496 1873
2327333044 22 -77 -69 -219 -16582 1924
2327339628 16 -81 -66 -218 -16579 1836
2327346095 27 -76 -74 -224 -16510 1823
2327352706 32 -81 -60 -219 -16565 1886
2327359240 30 -68 -59 -205 -16590 1849
2327365709 40 -78 -55 -133 -16583 1737
2327372212 55 -69 -31 -232 -16534 1799
2327378770 59 -70 -35 -193 -16565 1880
2327385273 63 -73 -42 -183 -16545 1830
2327391861 70 -74 -20 -253 -16556 1891
2327398438 65 -67 -17 -268 -16592 1896
2327404986 60 -78 -31 -240 -16569 1853
2327411464 56 -81 -21 -232 -16568 1883
2327418060 53 -74 -27 -252 -16542 1919
2327424694 51 -80 -41 -220 -16561 1868
2327431280 54 -75 -37 -281 -16587 1914
2327437823 41 -70 -33 -238 -16530 1889
2327444263 43 -82 -45 -271 -16531 1844
2327450700 38 -79 -54 -238 -16555 1852
2327457134 34 -75 -45 -252 -16578 1893
2327463568 43 -75 -47 -206 -16566 1811
2327470024 48 -78 -50 -236 -16521 1873
2327476470 47 -75 -41 -252 -16550 1845
2327482914 56 -76 -55 -237 -16583 1810
2327489490 55 -81 -41 -215 -16596 1870
2327496109 62 -70 -25 -238 -16587 1881
2327502696 64 -79 -29 -216 -16545 1883
2327509291 59 -77 -31 -235 -16568 1938
2327515931 55 -71 -30 -268 -16522 1944
2327522520 54 -79 -44 -276 -16547 1909
2327529058 53 -76 -54 -252 -16584 1881
2327535548 47 -75 -46 -239 -16550 1852
2327542165 49 -76 -51 -203 -16536 1862
2327548773 51 -86 -47 -270 -16577 1866
2327555352 43 -70 -38 -269 -16568 1900
2327561896 48 -75 -42 -238 -16570 1884
2327568334 55 -78 -39 -232 -16525 1829
2327574771 53 -71 -32 -492 -16567 1921
2327581208 46 -74 -49 -242 -16599 1922
2327587612 43 -81 -55 -240 -16571 1871
2327594040 41 -74 -45 -226 -16547 1896
2327600470 47 -72 -44 -235 -16585 1869
2327606906 53 -84 -48 -258 -16574 1854
2327613487 49 -78 -39 -276 -16596 1887
2327620105 45 -76 -44 -266 -16548 1831
2327626667 53 -80 -60 -231 -16548 1857
2327633104 49 -78 -43 -192 -16527 1887
2327639544 56 -75 -33 -223 -16586 1875
2327645981 51 -80 -42 -256 -16545 1914
2327652416 54 -76 -32 -234 -16562 1918
2327658862 49 -70 -36 -259 -16559 1875
2327665316 46 -82 -48 -231 -16567 1867
2327671753 48 -74 -41 -238 -16557 1888
2327678199 46 -72 -29 -257 -16575 1875
2327684671 50 -80 -41 -213 -16568 1910
2327691269 45 -73 -33 -265 -16584 1878
2327697827 43 -66 -33 -227 -16607 1912
2327704274 50 -78 -43 -229 -16555 1875
2327710711 51 -71 -32 -228 -16552 1870
2327717164 50 -66 -34 -259 -16541 1829
2327723616 46 -74 -57 -250 -16551 1848
2327730058 49 -73 -42 -259 -16595 1841
2327736516 48 -66 -40 -231 -16579 1871
2327742950 48 -72 -42 -225 -16557 1853
2327749389 54 -74 -33 -285 -16585 1860
2327755822 52 -73 -28 -264 -16562 1891
2327762270 54 -75 -37 -254 -16550 1897
2327768713 54 -80 -44 -254 -16564 1861
2327775158 53 -68 -39 -232 -16543 1844
2327781597 52 -78 -40 -236 -16568 1835
2327788030 52 -75 -43 -257 -16564 1894
2327794470 50 -75 -34 -228 -16537 1871
2327800913 56 -78 -40 -238 -16569 1863
2327807346 59 -80 -44 -257 -16590 1895
2327813752 49 -70 -44 -255 -16585 1876
2327820184 47 -75 -40 -244 -16520 1901
2327826612 50 -80 -51 -213 -16555 1889
2327833047 46 -71 -41 -251 -16530 1898
2327839576 43 -69 -36 -256 -16591 1865
2327846024 40 -78 -45 -310 -16532 1900
2327852458 35 -72 -60 -214 -16529 1923
2327858889 31 -77 -50 -223 -16564 1909
2327865326 28 -76 -59 -193 -16569 1785
2327871766 34 -68 -45 -191 -16576 1860
2327878208 35 -71 -31 -216 -16565 1850
2327884646 42 -81 -45 -215 -16559 1894
2327891082 46 -73 -40 -249 -16551 1889
2327897512 42 -63 -27 -246 -16622 1880
2327903916 54 -76 -35 -241 -16537 1829
2327910312 56 -82 -24 -211 -16572 1823
2327916742 59 -72 -24 -238 -16569 1879
2327923173 68 -79 -37 -219 -16561 1880
2327929603 66 -75 -31 -245 -16555 1919
2327936038 61 -74 -38 -218 -16558 1856
2327942474 62 -80 -36 -277 -16531 1847
2327948917 56 -83 -47 -295 -16589 1913
2327955366 44 -71 -45 -268 -16585 1898
2327961805 38 -80 -64 -243 -16525 1916
2327968240 35 -79 -65 -201 -16537 1882
2327974675 36 -68 -54 -222 -16549 1873
2327981082 35 -72 -58 -206 -16541 1917
2327987509 36 -79 -50 -229 -16550 1902
2327993959 40 -75 -42 -211 -16528 1850
2328000400 45 -74 -37 -207 -16589 1848
2328006847 44 -80 -44 -228 -16576 1862
2328013276 48 -77 -37 -244 -16526 1914
2328019715 44 -74 -45 -225 -16561 1928
2328026145 45 -80 -65 -228 -16542 1861
2328032580 45 -83 -49 -220 -16538 1927
2328039018 48 -70 -52 -217 -16547 1824
2328045471 58 -79 -51 -205 -16594 1895
2328051910 55 -74 -42 -235 -16561 1866
2328058346 51 -71 -36 -196 -16578 1877
2328064749 57 -78 -42 -295 -16534 1883
2328071173 56 -76 -37 -208 -16542 1920
2328077602 50 -67 -29 -201 -16562 1923
2328084032 56 -74 -41 -264 -16584 1910
2328090470 51 -72 -37 -277 -16545 1897
2328096907 43 -73 -35 -260 -16588 1868
2328103337 43 -83 -53 -305 -16559 1888
2328109767 41 -85 -55 -246 -16514 1856
2328116221 35 -75 -51 -244 -16566 1879
2328122657 37 -81 -59 -268 -16564 1881
2328129089 43 -84 -57 -250 -16557 1877
2328135523 33 -79 -57 -215 -16566 1865
2328141965 30 -84 -64 -275 -16562 1901
2328148398 35 -87 -65 -260 -16564 1811
2328154828 32 -76 -55 -221 -16544 1834
2328161263 44 -75 -62 -210 -16564 1852
2328167694 50 -81 -45 -215 -16561 1826
2328174132 55 -72 -38 -209 -16556 1828
2328180566 59 -77 -36 -254 -16563 1846
2328187084 69 -79 -31 -250 -16530 1884
2328193523 69 -69 -17 -246 -16560 1919
2328199982 62 -74 -32 -245 -16581 1899
2328206422 57 -77 -45 -264 -16613 1890
2328212822 54 -77 -46 -24 -16567 1910
2328219255 46 -75 -47 -294 -16551 1895
2328225703 43 -84 -55 -261 -16556 1920
2328232143 32 -74 -56 -241 -16554 1881
2328238580 25 -73 -55 -225 -16547 1843
2328245017 31 -80 -54 -257 -16558 1836
2328251450 35 -76 -53 -177 -16557 1881
2328257887 37 -73 -39 -233 -16564 1831
2328264292 49 -72 -33 -186 -16597 1847
2328270720 49 -75 -33 -284 -16538 1881
2328277124 48 -68 -27 -231 -16561 1886
2328283554 54 -76 -37 -240 -16531 1841
2328290005 59 -80 -37 -222 -16556 1823
2328296407 54 -70 -29 -254 -16545 1859
2328302832 53 -80 -40 -236 -16546 1886
2328309261 58 -78 -39 -224 -16555 1865
2328315704 51 -74 -37 -236 -16577 1862
2328322144 57 -80 -42 -250 -16588 1859
2328328582 60 -77 -50 -251 -16598 1841
2328335019 56 -77 -35 -223 -16563 1898
2328341450 54 -78 -44 -250 -16520 1912
2328347893 61 -81 -40 -233 -16613 1886
2328354332 55 -77 -37 -215 -16585 1879
2328360767 52 -79 -43 -265 -16550 1916
2328367214 54 -80 -45 -256 -16525 1872
2328373650 51 -77 -35 -260 -16572 1838
2328380087 55 -76 -41 -196 -16574 1851
2328386518 55 -74 -37 -230 -16546 1887
2328392950 54 -73 -27 -250 -16531 1914
2328399377 55 -69 -32 -292 -16553 1860
2328405812 46 -77 -41 -278 -16556 1922
2328412252 39 -72 -50 -245 -16531 1921
2328418715 34 -75 -56 -256 -16562 1875
2328425154 37 -73 -63 -213 -16569 1891
2328431590 39 -78 -51 -226 -16531 1871
2328437996 39 -77 -46 -193 -16532 1882
2328444433 46 -80 -49 -176 -16567 1876
2328450833 47 -77 -34 -212 -16567 1862
2328457265 44 -72 -34 -257 -16540 1821
2328463696 57 -83 -34 -267 -16564 1822
2328470126 56 -80 -33 -235 -16518 1905
2328476562 54 -73 -36 -246 -16538 1875
2328482997 58 -83 -40 -248 -16586 1901
2328489436 56 -79 -37 -256 -16535 1903
2328495873 54 -76 -35 -225 -16570 1884
2328502308 51 -80 -41 -240 -16529 1902
2328508742 49 -78 -46 -270 -16560 1916
2328515176 44 -77 -44 -217 -16554 1847
2328521616 36 -82 -53 -277 -16553 1932
2328528016 40 -80 -58 -207 -16537 1881
2328534526 32 -67 -62 -225 -16587 1870
2328540963 35 -75 -49 -284 -16601 1882
2328547393 43 -82 -58 -260 -16537 1838
2328553823 41 -77 -47 -203 -16550 1916
2328560255 48 -75 -44 -251 -16566 1900
2328566683 48 -82 -52 -213 -16563 1831
2328573117 51 -71 -40 -256 -16601 1897
2328579551 54 -78 -34 -269 -16571 1886
2328585966 54 -78 -47 -273 -16535 1902
2328592399 50 -76 -34 -249 -16572 1909
2328598838 53 -70 -32 -249 -16587 1871
2328605282 51 -75 -51 -270 -16563 1895
2328611682 47 -80 -41 -281 -16509 1900
2328618114 45 -69 -44 -228 -16560 1863
2328624547 46 -77 -41 -227 -16569 1879
2328630976 54 -74 -37 -274 -16542 1927
2328637412 47 -75 -35 -502 -16540 1944
2328643855 51 -82 -46 -227 -16552 1884
2328650289 49 -75 -44 -285 -16541 1867
2328656727 52 -72 -41 -248 -16571 1904
2328663163 48 -80 -52 -274 -16571 1923
2328669601 49 -77 -53 -233 -16519 1871
2328676041 45 -72 -46 -305 -16538 1853
2328682474 48 -80 -58 -273 -16563 1872
2328688877 46 -82 -57 -253 -16533 1859
2328695315 44 -72 -43 -215 -16559 1883
2328701748 49 -81 -43 -238 -16531 1865
2328708186 52 -85 -40 -249 -16573 1878
2328714617 41 -70 -32 -247 -16572 1874
2328721053 46 -76 -49 -252 -16553 1898
2328727490 50 -90 -56 -237 -16515 1903
2328733931 50 -75 -46 -244 -16535 1888
2328740365 51 -80 -45 -232 -16572 1843
2328746803 56 -82 -54 -288 -16569 1886
2328753235 50 -76 -45 -219 -16515 1889
2328759676 49 -75 -37 -255 -16570 1877
2328766082 51 -80 -48 -255 -16576 1857
2328772517 44 -74 -38 -230 -16563 1891
2328778947 48 -72 -45 -250 -16575 1900
2328785383 43 -76 -55 -202 -16566 1835
2328791837 38 -74 -48 -204 -16540 1883
2328798271 38 -70 -45 -226 -16541 1844
2328804679 46 -79 -50 -283 -16561 1910
2328811109 45 -74 -43 -185 -16564 1879
2328817541 41 -67 -40 -188 -16583 1872
2328823990 52 -75 -42 -222 -16587 1879
2328830396 54 -75 -33 -230 -16574 1862
2328836845 45 -73 -25 -216 -16539 1910
2328843283 49 -78 -42 -219 -16546 1912
2328849726 49 -82 -39 -224 -16563 1855
2328856166 44 -75 -44 -246 -16569 1905
2328862601 47 -80 -59 -264 -16566 1869
2328869035 46 -83 -52 -237 -16546 1849
2328875471 44 -79 -49 -225 -16559 1900
2328882018 49 -80 -55 -24 -16570 1867
2328888460 50 -84 -53 -268 -16523 1866
2328894893 47 -76 -43 -210 -16534 1896
2328901330 45 -76 -44 -221 -16569 1864
2328907766 50 -80 -48 -215 -16536 1864
2328914202 41 -77 -34 -223 -16580 1861
2328920639 47 -73 -43 -270 -16562 1934
2328927073 46 -84 -50 -290 -16549 1916
2328933509 36 -76 -54 -286 -16589 1952
2328939932 30 -68 -63 -236 -16614 1893
2328946360 30 -84 -70 -258 -16560 1863
2328952790 29 -77 -56 -239 -16566 1882
2328959223 28 -76 -66 -248 -16530 1866
2328965625 39 -84 -59 -243 -16548 1866
2328972052 35 -77 -52 -268 -16567 1877
2328978500 35 -69 -57 -264 -16554 1862
2328984938 46 -79 -57 -204 -16551 1840
2328991375 41 -71 -39 -238 -16530 1903
2328997813 45 -66 -31 -203 -16583 1871
2329004249 52 -78 -36 -236 -16523 1876
2329010678 59 -70 -24 -225 -16555 1906
2329017108 52 -70 -18 -283 -16556 1924
2329023543 44 -80 -41 -262 -16554 1929
2329029996 37 -76 -48 -334 -16561 1919
2329036403 23 -71 -57 -311 -16537 1934
2329042836 13 -85 -85 -321 -16547 1908
2329049279 -9 -87 -111 -248 -16589 1874
2329055716 -5 -86 -106 -150 -16575 1797
2329062144 8 -86 -93 -116 -16568 1805
2329068580 27 -84 -57 -131 -16569 1810
2329075015 38 -81 -42 -227 -16553 1873
2329081456 41 -82 -41 -229 -16548 1898
2329087886 39 -84 -49 -232 -16555 1853
2329094311 32 -80 -39 -289 -16540 1923
2329100747 18 -92 -76 -384 -16604 2027
2329107185 -31 -102 -127 -376 -16583 2094
2329113587 -90 -39 -162 -37 -16511 2104
2329120037 -102 -77 -153 -260 -16643 1933
2329126475 -141 -73 -138 304 -16632 3586
2329132911 -513 -85 -48 -87 -16782 2679
2329139344 -792 -129 -19 -235 -16513 2654
2329145772 -973 -133 -33 -328 -16729 2041
2329152202 -1054 -119 -53 -366 -16540 2169
2329158632 -1196 -104 -93 -401 -16614 2126
2329165076 -1320 -105 -127 -223 -16656 2294
2329171505 -1486 -112 -111 -86 -16645 2025
2329177944 -1620 -116 -89 -59 -16490 1748
2329184378 -1636 -142 -73 -140 -16616 1514
2329190812 -1643 -125 -44 -110 -16612 1407
2329197242 -1645 -121 -48 -148 -16603 1535
2329203695 -1700 -103 -68 -622 -17091 1447
2329210128 -2005 400 -1747 5543 -32764 -1199
2329216568 -4148 3401 -1584 4771 -27687 7900
2329223003 -7699 2747 632 97 -25727 2973
2329229525 -7491 3133 1184 -1077 -22113 1596
2329235969 -6073 2838 1210 -2489 -19162 1637
2329242408 -5697 3052 604 -1971 -17956 1461
2329248845 -6284 3632 148 -1862 -17228 -380
2329255276 -6316 4500 -78 -2064 -16264 -494
2329261706 -6371 5153 -74 -1638 -15987 -842
2329268136 -6311 5389 306 -84 -15859 -742
2329274567 -6176 5516 1390 634 -14696 -579
2329281004 -5872 5454 2153 702 -13652 -1161
2329287441 -5418 5027 2580 -98 -13096 -772
2329293883 -5115 4740 2572 -2281 -14446 -1734
2329300313 -4750 4766 1931 -2644 -15516 -2389
2329306747 -4569 4794 1615 -1482 -16669 -2259
2329313178 -4676 5206 1793 -961 -16917 -1905
2329319608 -5041 5678 2042 -763 -17427 -2214
2329326039 -5331 6063 2005 -529 -16991 -2104
2329332475 -5726 6465 1747 -82 -16646 -1790
2329338916 -6398 6748 1498 324 -16281 -1639
2329345364 -7249 7372 1295 588 -15815 -1485
2329351799 -8380 7672 1075 -354 -14786 -2410
2329358236 -8483 7369 -114 -182 -11915 -1977
2329364675 -8604 9153 -938 -1170 -14831 -5274
2329371108 -9035 8875 -758 -1289 -15226 -3759
2329377535 -10040 8358 -376 -731 -14620 -4704
2329383966 -9628 8751 209 -511 -14319 -5446
2329390397 -8146 8728 670 -454 -13652 -4902
2329396844 -6684 8605 1112 -237 -13189 -4180
2329403283 -5953 8066 1410 -6 -12989 -4339
2329409720 -5870 7612 1728 347 -12967 -5027
2329416158 -5822 7065 2182 719 -12748 -5343
2329422598 -5667 6639 2476 -115 -12904 -5484
2329429031 -5451 6364 2794 -818 -13488 -5648
2329435469 -4907 5957 3068 -453 -13748 -6935
2329441904 -4699 5650 3180 110 -13708 -6375
2329448338 -5087 5879 2745 348 -14267 -4721
2329454777 -6694 7037 1887 -575 -14598 -6057
2329461211 -7646 8005 923 -1054 -15983 -7754
2329467645 -8518 9340 -99 -1246 -16230 -7410
2329474084 -9492 10912 -270 -478 -16704 -7801
2329480522 -10101 11558 252 1540 -17098 -7094
2329486962 -11023 10798 1423 1899 -17235 -7312
2329493398 -11442 9929 2691 2572 -15343 -9377
2329499834 -10821 9282 3769 2290 -14162 -8004
2329506264 -9842 8168 4517 2381 -13241 -7403
2329512669 -9197 6542 4730 2210 -12157 -6070
2329519094 -8901 4846 4492 1183 -10354 -6939
2329525523 -7860 3835 3839 -109 -8364 -8103
2329531957 -6437 4535 2930 -1242 -8739 -9270
2329538394 -5250 5344 2158 -1342 -9335 -10648
2329544825 -4849 6085 1567 -1178 -10763 -10878
2329551351 -4391 6922 1319 -993 -12253 -10858
2329557786 -3990 7291 1058 418 -13509 -10443
2329564216 -4024 6718 1117 1675 -14814 -9873
2329570649 -4268 5914 1303 2096 -15388 -9869
2329577079 -4575 4979 1017 2887 -15173 -10001
2329583516 -4930 4111 497 3384 -14264 -9984
2329589972 -5060 3817 3 3189 -13154 -9948
2329596477 -4873 3869 -374 3051 -12701 -10447
2329602931 -4350 4130 -319 3977 -12331 -9703
2329609368 -3975 3719 43 3223 -13197 -9362
2329615811 -4206 2926 189 2712 -13855 -9663
2329622243 -4642 1568 595 2532 -10381 -9052
2329628678 -2992 2077 1049 2534 -9442 -9591
2329635111 -3350 1220 993 2386 -11492 -10139
2329641544 -3386 1764 1240 2419 -9693 -10826
2329647980 -2562 1094 1696 1002 -10420 -11061
2329654414 -2025 359 2490 1591 -10904 -10545
2329660857 -2294 16 2463 2174 -11164 -10538
2329667288 -2547 240 2152 1233 -9811 -11196
2329673720 -2439 772 1646 1032 -10322 -11031
2329680158 -2102 995 1359 2278 -10293 -11917
2329686612 -1252 1474 1668 2979 -9340 -11112
2329693051 -268 1828 1601 3248 -9253 -9230
2329699488 -242 1810 1174 3527 -10734 -9402
2329705927 -753 1086 439 4163 -12080 -9061
2329712361 -1366 -173 -88 2334 -11479 -11012
2329718795 -1026 -65 -221 1740 -12460 -12572
2329725230 -1049 55 -309 786 -13841 -14043
2329731670 -1435 292 -296 651 -12694 -14276
2329738078 -1562 226 -104 -1042 -10919 -13365
2329744510 411 2382 -462 -730 -8287 -15552
2329750910 1752 4080 -599 197 -10538 -12256
2329757343 1687 4304 -255 1869 -10581 -11057
2329763778 1167 3566 260 2450 -11850 -11049
2329770213 250 1971 660 3108 -12502 -10434
2329776662 -1491 323 924 3700 -12269 -10829
2329783097 -2698 -745 972 3320 -10221 -11335
2329789538 -3044 -690 654 2174 -8382 -10194
2329795968 -3771 -455 409 1115 -7682 -11230
2329802402 -3536 373 -419 1692 -8264 -11148
2329808838 -3378 1269 -326 2385 -7192 -11640
2329815274 -3660 2768 -289 952 -11458 -13187
2329821723 -3415 5572 -1457 2263 -11043 -14908
2329828159 -3099 7571 -2187 2501 -11661 -12224
2329834595 -3527 8581 -2984 3795 -11240 -10579
2329841002 -4851 8055 -3030 4188 -10333 -10988
2329847431 -5772 7437 -2599 2686 -9787 -12194
2329853871 -6214 7239 -2623 3424 -9593 -12583
2329860404 -6372 8058 -2831 4415 -11477 -13791
2329866854 -6408 8303 -2936 5007 -9315 -12135
2329873289 -6747 7903 -2438 5231 -8267 -11184
2329879728 -7005 7042 -2090 6243 -9595 -12925
2329886166 -7155 6149 -2287 6835 -9568 -12523
2329892602 -7219 6496 -2811 4866 -7754 -12362
2329899039 -7093 7664 -4138 6098 -9109 -13564
2329905481 -6829 7325 -4439 8723 -9241 -13881
2329911932 -6671 5811 -3782 8938 -7079 -13354
2329918375 -6351 5252 -3458 11054 -6103 -11874
2329924816 -5719 4434 -2579 11170 -4450 -11498
2329931252 -5523 4275 -1464 12008 -4547 -11846
2329937686 -5451 4426 192 10825 -4959 -12640
2329944127 -5131 4614 1365 9505 -5784 -13768
2329950534 -4716 4470 2156 7907 -5857 -13950
2329956969 -4467 4863 2755 6020 -5051 -13766
2329963407 -4172 5321 2887 5184 -5442 -13511
2329969841 -3929 5677 2930 4014 -5177 -12775
2329976295 -3826 6028 2761 3994 -5161 -12493
2329982735 -3769 6185 2489 3920 -5295 -12207
2329989173 -3791 6298 2054 3407 -5587 -11993
2329995609 -3981 6539 1147 3651 -6239 -12287
2330002048 -4055 6530 141 3830 -6387 -12984
2330008506 -4036 6258 -1106 5349 -6029 -12655
2330014949 -4239 6347 -1728 6301 -5431 -11808
2330021388 -4510 6473 -2085 7092 -5087 -11299
2330027823 -4683 6438 -2229 6739 -4697 -10736
2330034265 -4835 6410 -2302 6219 -4399 -9668
2330040696 -5163 6645 -2385 5405 -4115 -8675
2330047138 -5849 7272 -2797 4902 -4211 -8924
2330053582 -6383 8045 -3364 5257 -4137 -9966
2330060044 -6701 8770 -4018 7272 -4837 -11179
2330066452 -6961 9144 -4127 8608 -4234 -11991
2330072895 -6982 9408 -4266 8935 -4309 -13174
2330079334 -6663 9782 -4621 9913 -4194 -12863
2330085765 -6262 10554 -4817 10082 -3716 -12167
2330092197 -6086 11053 -5014 9503 -3772 -11728
2330098633 -6030 11666 -5387 9458 -3507 -11657
2330105074 -5881 11907 -5639 9827 -3013 -11913
2330111514 -5688 11915 -5655 10428 -2840 -12100
2330117948 -5357 11181 -5510 11113 -3095 -12155
2330124386 -5221 10229 -5462 12743 -3429 -12642
2330130820 -4978 9023 -4679 14613 -3767 -13824
2330137255 -4218 7861 -3843 15140 -3750 -15129
2330143698 -3009 7205 -2992 15569 -3652 -14564
2330150138 -1832 6579 -1990 14974 -3522 -12733
2330156577 -880 6318 -1484 14225 -2897 -10549
2330163011 -578 6168 -1125 12772 -2171 -8374
2330169445 -672 6036 -984 12142 -2003 -7502
2330175976 -1013 5933 -1138 12700 -1495 -6673
2330182421 -1427 5860 -1366 13925 -1076 -6896
2330188828 -2001 6221 -1383 13662 -1679 -8066
2330195230 -2242 6998 -1477 13052 -2519 -10045
2330201654 -2025 8088 -1781 12547 -2663 -10820
2330208083 -1473 8453 -2155 12506 -2833 -10720
2330214519 -1099 8467 -2404 12535 -2801 -10017
2330220960 -870 7696 -2536 12845 -2594 -9362
2330227400 -777 6845 -2649 13455 -2255 -8695
2330233851 -728 6043 -2733 14221 -1580 -8167
2330240288 -678 5236 -2851 14890 -1166 -7607
2330246722 -732 4907 -2912 15362 -783 -7349
2330253164 -810 4716 -2994 16640 -664 -7214
2330259570 -863 4513 -3001 17689 -582 -6994
2330266018 -781 4368 -2774 18128 -445 -6908
2330272458 -517 4377 -2259 18140 6 -5721
2330278899 -382 4404 -1715 17300 341 -4484
2330285331 -762 4383 -1308 16064 355 -2552
2330291769 -1973 4060 -1116 15029 515 -3714
2330298202 -2286 3955 -1036 13523 829 -5664
2330304636 -2439 4100 -1122 16535 494 -4091
2330311070 -2603 4975 -732 13848 -364 -7285
2330317476 -1962 4834 -1436 12201 246 -5016
2330323908 -2046 4962 -1980 13747 -91 -5732
2330330345 -2127 5231 -1869 15087 -460 -6344
2330336792 -1966 4770 -2028 14303 -82 -6264
2330343231 -1786 3637 -2661 14323 361 -5649
2330349665 -1768 2992 -2751 15319 541 -5523
2330356103 -1768 2455 -2607 16923 525 -5045
2330362544 -1673 2214 -2179 17462 868 -4409
2330368986 -1554 2243 -1733 17490 1298 -3927
2330375425 -1605 2360 -1385 16652 1247 -3626
2330381866 -1863 2585 -1303 16148 1142 -4080
2330388328 -1938 2648 -1478 15603 957 -4710
2330394769 -1945 2612 -1675 15391 754 -5174
2330401211 -1906 2421 -1738 15957 695 -5620
2330407654 -1741 2241 -1661 16781 732 -5921
2330414117 -1511 2164 -1497 16813 914 -5720
2330420556 -1193 2095 -1379 16632 1082 -4560
2330427001 -1091 1951 -1030 17567 1862 -2115
2330433440 -1179 1980 -738 16678 2399 -785
2330439903 -1358 2652 -523 14285 2534 -1412
2330446348 -1555 3752 -1202 12941 1838 -2337
2330452782 -1897 4306 -1829 13607 1023 -3474
2330459215 -1979 4414 -2177 14196 772 -5691
2330465654 -1312 3674 -2518 14874 421 -6113
2330472092 -1010 2976 -2514 16156 527 -5751
2330478532 -681 2429 -2250 17102 997 -5495
2330484969 -377 1637 -1814 17073 1277 -4802
2330491414 -228 1181 -1631 16865 1725 -3969
2330497994 -129 1089 -1626 16707 2099 -3269
2330504468 -95 1366 -1578 16574 2216 -3214
2330510919 43 1453 -1435 16994 2185 -2725
2330517359 203 1157 -1058 17405 2226 -2438
2330523770 250 963 -808 16956 2399 -1495
2330530174 212 914 -606 16298 2763 -1018
2330536610 80 1208 -549 15510 2809 -715
2330543056 -95 1312 -668 15134 2894 -1148
2330549491 80 1744 -778 15476 2429 -2147
2330555925 541 2140 -739 15797 2176 -2107
2330562365 881 2499 -616 15485 2232 -2817
2330568818 1148 2675 -506 15358 1841 -3336
2330575261 1275 2515 -579 15532 1365 -3466
2330581701 1198 2292 2530 -8974 -3979 -5688
2330588144 3385 1435 2342 32747 2635 -4603
2330594597 2505 760 1863 10143 1278 -2935
2330601031 1851 747 1475 11905 1869 -2230
2330607465 1733 227 1306 14069 2165 -2670
2330613908 1967 -521 940 20498 2124 -194
2330620349 1098 -13 1332 16808 2464 -1486
2330626795 1016 -681 1325 14769 2401 -2475
2330633224 1306 -1157 1211 18680 2553 30
2330639658 825 -855 1328 14512 1953 -2249
2330646065 670 -510 1368 17188 3429 1900
2330652499 278 -445 1561 16172 3038 -1316
2330658929 1171 -816 1879 15861 3399 20
2330665366 1569 -470 2305 15522 1889 -2281
2330671801 2203 108 3160 15678 2667 -2503
2330678240 2318 421 3007 16308 870 -917
2330684682 1658 731 3069 16404 2225 -1212
2330691115 1037 737 2940 16212 697 -4040
2330697549 1392 895 2509 16310 782 -2386
2330703979 1239 1057 2214 16034 445 -3029
2330710415 1058 1205 1698 16029 -224 -4267
2330716853 1324 2469 1304 16321 3860 1047
2330723282 393 580 2290 16049 -2428 -3319
2330729717 313 1406 864 17282 363 2347
2330736153 -912 -512 361 15706 952 -3274
2330742593 -996 113 276 16287 755 -2136
2330749032 -989 -89 282 16033 1217 -2433
2330755470 -683 -181 559 16186 687 -2513
2330761909 -428 -10 715 16176 631 -1796
2330768348 -130 173 836 16101 1025 -1970
2330774787 254 503 1104 15937 1229 -2217
2330781216 637 665 1744 15776 1747 -2529
2330787658 1046 544 2702 16104 -496 -2653
2330794115 1373 683 2889 15768 -288 -3154
2330800555 1684 779 3210 15067 -1489 -3147
2330807012 1646 275 3897 17259 2637 1694
2330813451 832 8 3654 16833 -1762 -3354
2330819915 1024 52 3112 15923 -1079 -1930
2330826349 507 465 1585 16554 -1194 -434
2330832885 -100 1157 117 16439 -57 -1814
2330839325 -62 1326 137 16190 -140 -1984
2330845761 -36 1212 93 16182 -65 -1441
2330852194 81 824 55 16275 -376 -1262
2330858634 89 610 51 16343 -374 -1139
2330865076 80 277 7 16277 -299 -1311
2330871510 57 91 -11 16179 -286 -1611
2330877946 55 26 -10 16273 -286 -1569
2330884389 65 -131 -33 16226 -286 -1415
2330890820 58 -270 -38 16211 -273 -1712
2330897262 62 -249 -36 16156 -293 -2006
2330903708 65 -61 -38 16147 -209 -1942
2330910142 34 137 -6 16119 -377 -2113
2330916586 29 381 20 16180 -185 -1967
2330923029 42 500 29 16256 -182 -1761
2330929459 74 402 10 16269 -263 -1563
2330935919 65 324 4 16182 -293 -1664
2330942365 67 331 -6 16194 -248 -1697
2330948813 81 343 5 16257 -272 -1654
2330955265 79 367 12 16252 -276 -1677
2330961706 77 368 -1 16201 -318 -1656
2330968142 76 401 -4 16263 -277 -1630
2330974587 77 400 5 16234 -259 -1471
2330981029 74 315 -12 16268 -306 -1282
2330987468 63 99 -34 16296 -292 -1314
2330993908 56 -60 -42 16255 -294 -1506
2331000348 49 -60 -32 16189 -292 -1728
2331006792 -25 246 -2 16193 -250 -1941
2331013233 -96 791 59 16038 -170 -2582
2331019669 -39 1421 96 16110 -222 -2347
2331026107 25 1758 104 16186 -266 -1707
2331032544 38 1899 121 16218 -312 -1583
2331038974 40 2030 133 16227 -276 -1394
2331045421 76 2041 126 16272 -348 -1274
2331051866 77 2056 123 16276 -325 -1031
2331058324 60 1938 105 16311 -398 -837
2331064765 57 1791 87 16342 -335 -834
2331071204 54 1683 83 16272 -343 -1014
2331077636 74 1598 72 16348 -337 -713
2331084075 84 1451 54 16309 -383 -538
2331090517 87 1224 36 16351 -336 -485
2331096953 87 1080 27 16266 -347 -660
2331103384 79 1053 27 16233 -381 -835
2331109817 56 1208 40 16227 -393 -846
2331116261 12 1412 59 16268 -393 -642
2331122695 -86 1647 84 16284 -376 -553
2331129134 -252 2012 109 16208 -398 -369
2331135576 -747 2782 156 16183 340 -3893
2331142009 -540 3162 157 16183 -209 -1828
2331148449 -134 3210 143 16293 -324 -900
2331154886 -27 3426 153 16224 -292 -824
2331161323 64 3659 151 16334 -338 -391
2331167759 97 3707 139 16312 -423 385
2331174281 54 3612 136 16443 -474 570
2331180720 76 3214 110 16470 -464 777
2331187166 70 2937 81 16346 -427 888
2331193619 19 2724 77 16337 -519 1226
2331200021 -127 2685 70 16310 -599 1804
2331206458 -629 3071 67 16252 -927 1864
2331212893 -1760 4532 107 16033 -482 1916
2331219331 -2097 4697 65 13890 -3185 8215
2331225772 -2532 4682 116 17237 67 -2160
2331232201 122 1662 67 16376 -464 714
2331238636 66 1924 94 16343 -722 1515
2331245076 26 1688 0 17464 619 9074
2331251516 66 -44 -48 16322 -475 930
2331257942 71 50 -57 16131 -486 1429
2331264378 69 0 -71 16375 -478 1372
2331270807 81 -13 -58 16311 -436 1401
2331277241 79 -56 -39 16300 -482 1392
2331283674 81 -88 -40 16343 -527 1464
2331290110 66 -122 -36 16365 -522 1523
2331296564 49 -142 -22 16322 -497 1574
2331302999 -42 -138 -42 16268 -590 1967
2331309436 -195 -102 -38 16211 -638 2154
2331315866 -474 -249 -72 16282 -355 586
2331322271 -175 2 -69 16406 -318 339
2331328714 -3 38 -63 16341 -427 1092
2331335151 47 45 -58 16335 -402 1269
2331341588 66 38 -69 16349 -463 1312
2331348029 75 24 -69 16354 -435 1359
2331354435 68 31 -62 16331 -457 1392
2331360866 59 6 -65 16358 -432 1452
2331367297 60 -17 -71 16325 -442 1396
2331373702 66 -24 -53 16338 -444 1394
2331380099 61 -32 -52 16360 -445 1419
2331386528 53 -46 -62 16272 -431 1355
2331392968 52 -45 -55 16321 -441 1412
2331399403 47 -59 -46 16385 -433 1403
2331405837 50 -64 -64 16346 -422 1378
2331412271 50 -61 -50 16305 -465 1449
2331418712 43 -70 -47 16296 -460 1400
2331425154 46 -84 -59 16368 -469 1429
2331431587 48 -93 -39 16333 -458 1398
2331438028 44 -97 -36 16325 -428 1398
2331444467 47 -100 -44 16316 -452 1381
2331450899 85 -95 -40 16306 -442 1385
2331457330 65 -81 -41 16353 -427 1401
2331463761 79 -84 -46 16344 -428 1312
2331470192 71 -71 -45 16367 -447 1380
2331476611 69 -66 -36 16345 -429 1370
2331483042 72 -66 -46 16335 -434 1387
2331489478 67 -81 -45 16352 -469 1347
2331495915 73 -76 -34 16351 -456 1358
2331502351 71 -81 -45 16291 -431 1369
2331508789 65 -84 -42 16357 -474 1360
2331515229 61 -80 -35 16336 -461 1421
2331521748 56 -71 -48 16338 -455 1331
2331528188 54 -67 -49 16308 -439 1372
2331534623 50 -58 -46 16374 -443 1454
2331541027 53 -68 -50 16304 -418 1426
2331547458 55 -74 -54 16331 -456 1380
2331553907 51 -67 -45 16291 -439 1359
2331560343 51 -72 -50 16301 -440 1400
2331566796 57 -69 -56 16347 -428 1409
2331573234 50 -59 -47 16334 -460 1409
2331579670 49 -70 -53 16355 -440 1404
2331586080 52 -85 -46 16336 -423 1369
2331592514 46 -78 -44 16280 -444 1421
2331598956 46 -84 -41 16354 -471 1445
2331605394 49 -96 -54 16329 -412 1392
2331611827 43 -98 -37 16310 -445 1333
2331618267 42 -105 -42 16341 -435 1364
2331624705 47 -102 -42 16309 -453 1421
2331631139 92 -93 -34 16345 -457 1374
2331637580 52 -83 -40 16310 -466 1336
2331644013 50 -92 -44 16322 -458 1335
2331650447 52 -80 -36 16354 -425 1420
2331656904 52 -76 -30 16320 -432 1363
2331663339 51 -80 -45 16330 -467 1344
2331669778 49 -68 -39 16306 -499 1335
2331676225 48 -52 -38 16324 -457 1376
2331682666 47 -56 -45 16354 -419 1405
2331689100 46 -70 -48 16351 -411 1402
2331695536 46 -80 -38 16303 -452 1394
2331701974 54 -99 -45 16317 -412 1410
2331708398 46 -94 -47 16360 -452 1366
2331714831 46 -86 -38 16321 -451 1378
2331721266 43 -94 -44 16309 -455 1417
2331727699 44 -97 -43 16323 -459 1399
2331734137 48 -95 -44 16350 -404 1376
2331740572 44 -93 -39 16324 -434 1406
2331747007 47 -88 -47 16304 -471 1374
2331753447 43 -78 -38 16317 -465 1388
2331759901 43 -74 -50 16285 -450 1359
2331766308 49 -78 -55 16336 -481 1351
2331772734 54 -52 -49 16358 -466 1357
2331779167 48 -50 -52 16327 -451 1377
2331785595 49 -60 -57 16354 -434 1380
2331792026 49 -57 -51 16333 -431 1368
2331798454 50 -51 -57 16337 -422 1410
2331804888 49 -70 -52 16382 -422 1391
2331811331 44 -80 -49 16276 -448 1406
2331817758 42 -85 -41 16330 -458 1399
2331824194 47 -96 -35 16357 -484 1384
2331830624 40 -98 -33 16301 -436 1349
2331837061 43 -93 -27 16312 -428 1333
2331843497 46 -99 -39 16320 -449 1386
2331849956 40 -90 -49 16333 -418 1398
2331856402 49 -72 -29 16346 -473 1390
2331862838 50 -73 -57 16310 -460 1348
2331869357 46 -68 -38 16284 -463 1338
2331875816 46 -63 -40 16319 -429 1373
2331882251 47 -71 -54 16331 -455 1423
2331888689 49 -68 -55 16333 -432 1369
2331895128 50 -57 -46 16333 -454 1354
2331901557 50 -40 -60 16334 -449 1416
2331907991 50 -47 -57 16329 -440 1405
2331914429 50 -59 -46 16334 -479 1412
2331920864 51 -68 -58 16313 -477 1394
2331927302 45 -81 -56 16310 -421 1415
2331933750 44 -80 -37 16329 -462 1414
2331940190 48 -91 -44 16330 -433 1379
2331946626 46 -100 -48 16325 -415 1410
2331953064 46 -109 -32 16302 -437 1404
2331959496 50 -111 -36 16307 -456 1357
2331965939 47 -106 -40 16339 -454 1366
2331972383 40 -87 -40 16310 -479 1346
2331978829 44 -84 -46 16310 -457 1349
2331985232 49 -89 -49 16310 -449 1347
2331991667 48 -68 -43 16326 -474 1320
2331998103 48 -55 -49 16348 -436 1395
2332004553 49 -48 -61 16323 -465 1327
2332010995 45 -38 -56 16297 -455 1403
2332017435 44 -42 -48 16342 -440 1437
2332023876 47 -67 -50 16301 -431 1400
2332030314 44 -71 -43 16351 -423 1358
2332036754 43 -81 -37 16288 -451 1405
2332043191 47 -91 -49 16300 -465 1466
2332049626 44 -96 -38 16322 -459 1422
2332056071 44 -102 -36 16344 -473 1359
2332062513 49 -111 -37 16324 -461 1375
2332068953 46 -106 -40 16314 -471 1337
2332075387 47 -79 -38 16352 -415 1338
2332081791 49 -72 -49 16356 -440 1365
2332088223 52 -73 -45 16302 -440 1313
2332094658 51 -43 -52 16305 -445 1360
2332101097 52 -30 -59 16319 -442 1369
2332107537 58 -18 -67 16373 -479 1383
2332113974 51 -17 -60 16368 -407 1386
2332120414 56 -34 -64 16365 -446 1453
2332126848 48 -57 -64 16301 -433 1455
2332133286 45 -65 -50 16336 -411 1385
2332139722 42 -73 -49 16344 -428 1423
2332146153 47 -96 -53 16334 -444 1393
2332152582 44 -98 -39 16306 -451 1376
2332159025 41 -102 -41 16298 -431 1426
2332165470 44 -110 -47 16326 -443 1342
2332171901 43 -99 -33 16338 -439 1341
2332178331 42 -84 -39 16324 -458 1374
2332184760 43 -97 -44 16315 -456 1377
2332191189 43 -75 -41 16344 -432 1318
2332197592 46 -55 -49 16307 -474 1369
2332204022 51 -48 -52 16319 -477 1400
2332210549 46 -51 -55 16375 -472 1427
2332217007 49 -42 -53 16317 -432 1391
2332223442 48 -54 -54 16340 -418 1363
2332229902 50 -64 -52 16330 -441 1385
2332236348 43 -69 -41 16312 -495 1433
2332242776 47 -82 -45 16356 -442 1384
2332249209 43 -95 -44 16302 -421 1363
2332255652 44 -83 -36 16310 -432 1394
2332262086 47 -83 -43 16311 -428 1330
2332268525 47 -81 -43 16319 -435 1382
2332274954 45 -77 -37 16322 -448 1421
2332281387 49 -79 -49 16337 -420 1371
2332287814 49 -83 -46 16324 -452 1393
2332294245 51 -77 -44 16322 -405 1409
2332300672 49 -86 -45 16342 -405 1400
2332307113 49 -97 -43 16318 -409 1347
2332313545 45 -88 -46 16294 -465 1382
2332320001 48 -91 -45 16337 -461 1388
2332326454 47 -97 -49 16381 -452 1371
2332332894 47 -69 -51 16354 -440 1368
2332339331 56 -52 -51 16326 -488 1378
2332345762 51 -55 -65 16288 -446 1364
2332352191 45 -60 -49 16329 -450 1403
2332358622 43 -66 -54 16311 -443 1397
2332365079 42 -82 -53 16302 -447 1380
2332371516 46 -82 -48 16306 -484 1404
2332377951 44 -87 -44 16291 -437 1382
2332384385 44 -89 -47 16348 -454 1346
2332390787 46 -81 -41 16344 -422 1417
2332397217 45 -79 -34 16366 -435 1383
2332403656 49 -79 -52 16313 -457 1375
2332410091 46 -77 -43 16304 -392 1379
2332416527 43 -80 -37 16365 -466 1428
2332422959 47 -93 -45 16345 -428 1409
2332429400 42 -95 -36 16345 -422 1378
2332435831 41 -89 -34 16311 -478 1373
2332442265 51 -77 -49 16337 -445 1376
2332448667 47 -68 -44 16345 -443 1369
2332455093 46 -68 -40 16304 -469 1376
2332461525 50 -71 -44 16330 -460 1426
2332467955 52 -80 -51 16343 -464 1408
2332474391 47 -81 -34 16326 -473 1412
2332480824 51 -91 -47 16347 -474 1386
2332487256 46 -100 -48 16289 -464 1396
2332493695 48 -90 -44 16326 -457 1410
2332500133 47 -92 -46 16313 -464 1343
2332506572 50 -99 -50 16320 -415 1355
2332513012 48 -84 -43 16365 -480 1368
2332519449 47 -70 -42 16373 -481 1365
2332525883 48 -72 -57 16355 -461 1385
2332532325 52 -61 -51 16307 -430 1355
2332538766 51 -53 -53 16352 -453 1366
2332545201 52 -68 -57 16318 -446 1409
2332551633 46 -70 -38 16325 -455 1395
2332558151 44 -74 -46 16323 -428 1388
2332564590 45 -92 -43 16303 -431 1373
2332571030 45 -77 -38 16337 -461 1349
2332577469 41 -69 -39 16311 -476 1380
2332583908 50 -78 -51 16343 -459 1377
2332590339 47 -88 -43 16362 -428 1424
2332596794 39 -87 -41 16327 -472 1380
2332603235 50 -95 -46 16284 -459 1392
2332609669 48 -93 -39 16314 -462 1400
2332616111 42 -73 -32 16335 -423 1309
2332622547 53 -65 -50 16326 -447 1333
2332628990 48 -57 -47 16314 -417 1402
2332635425 46 -52 -45 16347 -473 1399
2332641830 51 -61 -46 16304 -435 1394
2332648262 48 -65 -52 16336 -460 1424
2332654691 48 -68 -44 16372 -420 1431
2332661124 50 -85 -43 16337 -443 1414
2332667528 52 -95 -40 16339 -465 1426
2332673957 46 -97 -40 16318 -415 1401
2332680399 42 -99 -43 16332 -428 1420
2332686852 46 -99 -51 16340 -425 1318
2332693289 43 -73 -44 16289 -467 1351
2332699722 48 -63 -41 16288 -412 1418
2332706151 51 -79 -47 16351 -396 1396
2332712579 47 -81 -41 16313 -460 1360
2332718987 45 -78 -40 16355 -471 1397
2332725386 47 -87 -41 16337 -460 1400
2332731810 46 -82 -44 16312 -475 1363
2332738236 47 -65 -50 16356 -443 1363
2332744668 52 -70 -53 16291 -445 1352
2332751098 47 -68 -49 16344 -443 1363
2332757528 48 -61 -48 16354 -436 1413
2332763959 50 -59 -48 16377 -469 1343
2332770389 43 -72 -49 16323 -459 1438
2332776819 43 -78 -42 16311 -423 1413
2332783252 47 -91 -35 16345 -422 1404
2332789686 44 -98 -41 16333 -469 1381
2332796119 40 -101 -32 16316 -461 1383
2332802556 42 -102 -38 16311 -440 1377
2332808989 45 -98 -36 16316 -461 1404
2332815426 40 -82 -36 16351 -460 1393
2332821862 43 -80 -46 16300 -476 1348
2332828296 46 -57 -51 16359 -457 1319
2332834730 46 -39 -48 16344 -461 1375
2332841167 50 -60 -42 16323 -414 1408
2332847602 49 -69 -53 16353 -462 1404
2332854037 49 -64 -51 16290 -468 1400
2332860474 48 -64 -46 16282 -473 1462
2332866911 45 -88 -51 16328 -456 1383
2332873342 47 -78 -44 16377 -417 1417
2332879775 45 -88 -45 16340 -427 1404
2332886220 48 -91 -50 16317 -420 1363
2332892655 43 -77 -38 16295 -456 1376
2332899091 42 -78 -48 16365 -405 1346
2332905611 47 -79 -53 16312 -453 1388
2332912052 42 -74 -48 16340 -464 1392
2332918504 47 -71 -42 16343 -457 1363
2332924946 52 -80 -55 16296 -449 1432
2332931381 45 -66 -50 16365 -479 1365
2332937819 47 -62 -50 16334 -451 1387
2332944250 49 -53 -57 16342 -460 1362
2332950687 45 -58 -55 16276 -445 1425
2332957120 50 -59 -46 16322 -446 1349
2332963553 46 -69 -50 16320 -461 1380
2332970004 45 -71 -42 16344 -450 1429
2332976409 41 -75 -45 16276 -457 1426
2332982809 51 -78 -44 16346 -421 1426
2332989234 47 -79 -45 16331 -430 1376
2332995667 45 -70 -43 16320 -471 1380
2333002110 44 -77 -48 16324 -429 1405
2333008556 47 -76 -47 16360 -467 1420
2333014998 48 -67 -44 16351 -440 1383
2333021432 52 -68 -51 16338 -472 1321
2333027869 49 -53 -48 16329 -439 1397
2333034308 52 -48 -54 16346 -444 1418
2333040744 49 -65 -55 16366 -431 1402
2333047173 51 -73 -55 16329 -446 1409
2333053619 44 -64 -50 16317 -447 1389
2333060059 48 -71 -47 16277 -437 1475
2333066513 51 -75 -53 16343 -451 1410
2333072950 49 -70 -38 16346 -437 1366
2333079393 48 -71 -52 16340 -456 1456
2333085825 53 -84 -55 16291 -459 1420
2333092261 44 -80 -46 16330 -444 1417
2333098713 45 -82 -42 16334 -462 1353
2333105153 51 -74 -56 16342 -439 1397
2333111584 49 -68 -47 16293 -460 1376
2333118025 44 -69 -38 16335 -444 1376
2333124472 44 -80 -48 16385 -438 1396
2333130910 45 -83 -45 16276 -475 1455
2333137346 41 -77 -36 16270 -482 1377
2333143756 44 -96 -53 16361 -397 1389
2333150182 46 -102 -47 16363 -440 1360
2333156612 41 -101 -33 16382 -448 1399
2333163049 42 -109 -46 16365 -420 1393
2333169486 46 -122 -34 16288 -442 1406
2333175929 40 -125 -29 16362 -526 1409
2333182360 54 -157 -27 16348 -433 1385
2333188794 59 -151 -31 16290 -441 1348
2333195224 53 -125 -29 16296 -491 1356
2333201711 47 -107 -38 16360 -468 1339
2333208224 48 -84 -48 16319 -615 1294
2333214774 41 -33 -42 16306 -440 1521
2333221309 43 -57 -59 16366 -458 1330
2333227841 63 -66 -64 16346 -343 1396
2333234379 77 -90 -52 16339 -380 1376
2333240912 107 -114 -46 16347 -479 1347
2333247369 165 -213 -66 16540 -405 1291
2333253997 589 -1408 -111 16561 -449 1528
2333260533 1343 -2324 -149 16271 -254 1202
2333267051 1637 -2854 -200 16060 -1216 2216
2333273559 1023 -2236 -56 16430 219 -1527
2333280126 2543 -3885 -125 16041 -540 1735
2333286654 2515 -4202 -231 15316 -612 2180
2333293194 1731 -3835 -185 16293 665 450
2333299728 969 -4366 -1526 17076 -1496 2791
2333306264 923 -4088 -1720 16470 -380 -568
2333312775 1158 -4168 -1987 15711 -356 919
2333319280 929 -5119 -2346 16425 -612 735
2333325823 536 -5978 -2403 19583 -2636 2960
2333332357 -948 -7754 -2070 25230 -905 -1565
2333338891 -783 -7396 -463 22734 -624 -2779
2333345439 4 -6680 446 20443 204 -633
2333352000 -15 -6745 866 19419 1250 589
2333358540 -421 -6919 1409 19635 771 -176
2333365083 -462 -7131 2086 20726 -185 -1895
2333371609 -244 -7399 3073 15274 611 -366
2333378143 -322 -8046 2426 15020 838 -2098
2333384672 -117 -7454 2158 16505 143 -3303
2333391206 288 -7422 2455 16749 -117 -3125
2333397709 567 -7984 2670 16286 -408 -3666
2333404238 1005 -8338 2612 16209 -261 -3155
2333410772 1092 -8121 2573 17063 -268 -2847
2333417266 1058 -8067 2600 17758 -616 -3539
2333423815 1003 -8677 2715 18677 -1202 -3744
2333430344 712 -9688 3065 19315 -1439 -3524
2333436885 150 -10579 3472 19525 -1431 -3708
2333443405 -313 -11485 4096 19652 -1443 -3806
2333449938 -930 -12569 4601 19435 -1495 -4068
2333456467 -1644 -13504 5110 19182 -1759 -4609
2333462967 -2578 -14598 5826 18541 -1864 -5015
2333469439 -3221 -15427 6324 17709 -1306 -5497
2333475881 -3433 -15265 6884 15673 -796 -6696
2333482311 -2851 -14028 7090 13369 -639 -7318
2333488742 -2076 -12453 6692 11686 -1165 -7798
2333495173 -1494 -11731 6039 11693 -1839 -7690
2333501603 -1383 -12329 5672 11605 -2152 -7290
2333508110 -1669 -13379 5266 11066 -2784 -7754
2333514608 -2032 -14582 4626 10560 -3171 -9046
2333521141 -1920 -15427 4091 9759 -1813 -10181
2333527675 -1199 -16288 3395 7690 -1422 -11678
2333534177 -376 -16137 2469 7211 -2082 -11110
2333540699 149 -15672 1364 8305 -2995 -11052
2333547214 210 -15481 617 7096 -3675 -11185
2333553749 -117 -14730 -1214 4293 -3710 -10151
2333560265 -1262 -14073 -3508 7478 -1322 -11766
2333566799 -1712 -14459 -3859 10595 -2013 -12362
2333573300 -1463 -14637 -3292 7896 -2073 -11458
2333579960 -1266 -16755 -3842 10372 -2488 -11526
2333586504 -876 -17512 -2964 10667 -3862 -11369
2333593029 -820 -16099 -2341 6085 -4986 -12299
2333599555 -818 -14640 -2924 9118 -2861 -13712
2333606058 -242 -13146 -1750 9245 -3848 -13503
2333612530 511 -11619 -443 7372 -3527 -11517
2333618969 1170 -11416 168 6364 -1347 -8511
2333625457 71 -12201 1022 6216 537 -4182
2333631975 -1795 -14346 1687 4045 -1770 -10246
2333638482 -2126 -15301 1389 3546 -3137 -16629
2333644923 -1551 -15520 912 1715 -3713 -19718
2333651358 -722 -15525 437 478 -3502 -17530
2333657794 -1460 -16038 -322 2577 -3105 -15417
2333664226 -2721 -17399 -895 3348 -3244 -18891
2333670660 -2869 -18449 -1412 3434 -2533 -19955
2333677090 -2372 -18721 -2186 5313 -1296 -18895
2333683526 -1328 -17234 -2303 4781 -1287 -16871
2333689957 -487 -15325 -2496 4526 153 -13116
2333696398 367 -13875 -2409 3621 803 -10113
2333702830 862 -11791 -2853 2737 -1131 -8152
2333709266 459 -10020 -3065 2890 -1892 -9075
2333715703 91 -8438 -2948 1402 -779 -11816
2333722141 503 -7487 -2779 856 -525 -11581
2333728581 724 -7099 -2660 2427 -459 -12506
2333735022 919 -6139 -2289 -3238 -3115 -15308
2333741449 350 -5832 -2035 -896 -2835 -19135
2333747884 621 -6633 -1617 -1157 -3410 -19151
2333754323 734 -8460 -1300 -1441 -2705 -19785
2333760753 415 -10593 -892 -2960 -1834 -15204
2333767186 -184 -11633 -1278 -2511 -1114 -16269
2333773619 -323 -12489 -1490 -2603 -1875 -16558
2333780052 -621 -13467 -1701 -2676 -2047 -16282
2333786457 -1279 -14553 -2000 -2759 -1444 -14815
2333792882 -2302 -15013 -2262 -2610 -1241 -14283
2333799305 -3080 -14745 -2757 -1865 -2927 -13007
2333805733 -3491 -12427 -3798 -1720 -4126 -11797
2333812157 -3697 -8347 -4427 -1026 -3373 -11701
2333818676 -3841 -5058 -3961 -3903 -1020 -10711
2333825209 -4482 -5064 -4018 -4536 -798 -11494
2333831728 -3589 -7543 -3255 4426 -1383 -26956
2333838248 686 -9172 -253 -157 -1557 -21355
2333844768 1975 -8495 94 -5579 -1756 -18799
2333851302 2316 -3903 -2735 3835 -735 -20321
2333857811 2700 -937 -5432 -4751 -3424 -14355
2333864280 1165 -7789 -3223 -8152 21 -14813
2333870716 369 -11734 -608 -9542 1955 -13219
2333877115 458 -9867 68 -5497 286 -15821
2333883547 1163 -6585 -1601 -3124 -3729 -14613
2333890090 1119 -7061 -1632 -2952 -2046 -13366
2333896525 855 -6902 -1536 -4691 -369 -12821
2333902958 1005 -7112 -953 -5399 -1380 -13996
2333909390 1476 -9095 -301 -6312 -1918 -14243
2333915821 1885 -11045 139 -5399 -2555 -13689
2333922256 1687 -11296 -50 -5618 -3317 -13807
2333928692 1884 -11782 4 -7539 -3466 -14127
2333935126 1807 -11897 -66 -9689 -3209 -13858
2333941627 1800 -13403 -103 -10647 -3058 -13125
2333948123 1033 -14523 -155 -10147 -2918 -13184
2333954648 900 -16700 219 -10594 -1953 -13006
2333961177 888 -17843 212 -9690 -1626 -12520
2333967673 -65 -17876 696 -11401 -2642 -12282
2333974201 -1388 -17626 786 -10341 -2319 -11675
